time,seconds_elapsed,z,y,x
1724854953146595800,0.053595947265625,1.7737036172032354,-1.0764277472570538,-1.7116181862987576
1724854953156648000,0.06364794921875,1.0435264713913202,-0.8201905942142009,-1.1788745607748627
1724854953166699800,0.07369970703125,0.5438578708648681,0.4335515760183334,-0.20828560756146908
1724854953176751900,0.083751953125,0.3404384080350399,0.3289242035910487,-0.4752902383342385
1724854953186803700,0.0938037109375,0.30906828725934027,-0.19094810379147528,-0.7891703097894788
1724854953196854800,0.103854736328125,0.2125672304034233,-0.3681818627461791,-0.6192147251442074
1724854953206907000,0.113906982421875,-0.5036924492150545,-0.23062428061962126,-0.20602321558743714
1724854953216958700,0.123958740234375,-1.122087966930866,0.3333011035010218,0.1258966626882553
1724854953227011000,0.134010986328125,-1.481870542383194,0.2645245043948293,0.5550546799227595
1724854953237063000,0.14406298828125,-0.686603961545229,0.4054907259210944,1.3646663047164678
1724854953247115000,0.154114990234375,-0.040762218499183656,0.911551657833159,1.62631320784837
1724854953257166800,0.164166748046875,-1.4242805232018232,-0.6201940915703773,0.8520981828674673
1724854953267219000,0.174218994140625,-1.5734639534533024,-1.230152620330453,-0.6653560063332319
1724854953277270800,0.184270751953125,-1.6899971599906682,-1.320940852497518,-1.2260559986665844
1724854953287321900,0.19432177734375,-1.1391454847157,-0.7903326315671205,-1.0294304337605833
1724854953297373700,0.204373779296875,0.0107183778911829,0.21803835529088972,-0.7137126254841685
1724854953307426000,0.214426025390625,0.5141536374747753,1.183431785687804,-0.14296265604048966
1724854953317478000,0.224477783203125,-2.3949334815621373,2.382707621717453,0.8965542874485254
1724854953327530000,0.234530029296875,-2.557958390161395,3.174564686372876,1.3347832076281307
1724854953337581800,0.244581787109375,-1.1566413939177989,2.963354715797305,1.1290203965425492
1724854953347634000,0.254634033203125,-0.9344809902608394,2.628746329089999,0.6162848091721534
1724854953357685800,0.264685791015625,-0.7491939809709787,2.376286648759246,0.3037570291087031
1724854953367737900,0.27473779296875,-0.4554080185174942,2.0126368764847515,-0.0877554403424263
1724854953377790000,0.2847900390625,0.19482816009521484,1.4935504587829112,-0.36448622309863565
1724854953387841000,0.294841064453125,1.1596440828651189,0.9865063610523939,-0.6765533999130129
1724854953397892900,0.304892822265625,2.2631319787442683,0.6510276212513446,-0.6030135319277644
1724854953407945000,0.314945068359375,2.9609909092754125,0.32840602493584153,-0.4148416148513555
1724854953417996800,0.324996826171875,2.5364310334861275,-0.4250725014865398,-0.35910453006029125
1724854953428049000,0.335048828125,1.8294389484286306,-1.4019862738072872,-0.20431407358199358
1724854953438100700,0.345100830078125,1.8039526249945164,-1.739822974911332,0.2788102193787694
1724854953448152800,0.35515283203125,0.6933259632766247,-1.3873691349118946,0.36889936336576934
1724854953458205000,0.365204833984375,-1.4485533791929484,-1.0124567948669194,0.4243193450316787
1724854953468257000,0.375257080078125,-2.242180960652232,-0.9325456382840871,0.7011214394584298
1724854953478308900,0.385308837890625,-0.32480244748592374,-1.0916074884712696,0.44721623649448156
1724854953488360000,0.39535986328125,1.4421744918107986,-0.44230245322883127,-0.5264812041282654
1724854953498411800,0.405411865234375,1.3369757492363452,1.7089952904492616,0.6068553020477294
1724854953508463900,0.4154638671875,0.7716413751006126,2.894855180066824,1.5916235872611402
1724854953518515700,0.425515625,-0.1649924092799425,1.4323703061550854,1.0031465302079916
1724854953528567800,0.43556787109375,-0.11041676948368549,0.1452864228129387,1.2167100781723856
1724854953538619600,0.44561962890625,0.21650924602746963,-0.46873745568990705,1.9224460256889462
1724854953548672000,0.455672119140625,0.11485445967018604,-0.17843465917706489,2.5419810688287017
1724854953558723800,0.465723876953125,-0.0034703064590692516,0.5762818846076727,2.5801728523179888
1724854953568776000,0.47577587890625,0.05335340452492237,0.43996085853874684,1.455827461849153
1724854953578827000,0.485826904296875,0.5661848534852266,-0.38846272649168967,0.13281447925269602
1724854953588878800,0.49587890625,1.4050374780714512,-0.8679501242548227,-0.388398721344769
1724854953598931000,0.505930908203125,1.6624930669933558,-0.9393056339383125,-0.09032441404759883
1724854953608982800,0.515982666015625,1.2695201696008442,-0.38136487718522544,0.7404889887288212
1724854953619035000,0.526034912109375,0.6037655193388461,0.2786830858677625,0.6068465342193842
1724854953629087000,0.5360869140625,0.067947747066617,-0.27749416834414004,-0.22229309012591839
1724854953639138800,0.546138916015625,0.6483481729090214,-0.8666226750433444,0.0026958149552345273
1724854953649191000,0.55619091796875,1.0481775120675563,-1.0270575671494007,0.2976677723228931
1724854953659242800,0.56624267578125,0.5776280385196209,-0.9382739528030156,-0.017509937727451325
1724854953669294800,0.576294921875,0.04699906706213951,-0.5729121159136294,0.018045067517459393
1724854953679346000,0.586345947265625,-0.23566110574305058,-0.6642167731702328,-0.0820651197463274
1724854953689397800,0.596397705078125,-0.2885235118806362,-0.7547635977968573,-0.17160452089607714
1724854953699449900,0.606449951171875,0.09045067077577114,-0.8243918452963233,-0.34435762730538844
1724854953709502000,0.616501953125,0.7447498610436916,-0.7048688092932105,-0.5439622080221772
1724854953719554000,0.626553955078125,0.8649889363616704,-0.25542642118185754,-0.2955728458702564
1724854953729606000,0.63660595703125,0.16241583679020405,-0.24617899262607096,-0.30032237848490473
1724854953739658000,0.646657958984375,-0.2603150700062513,-0.13883768506497143,-0.11370178250372409
1724854953749709800,0.656709716796875,-0.5020107797384262,0.33739275672882796,0.2448682022884488
1724854953759762000,0.666761962890625,-0.46757367260754107,0.45371611990779637,0.317780293764174
1724854953769812700,0.676812744140625,-0.4143389260262251,0.10742577097415923,0.19633651883155107
1724854953779864800,0.68686474609375,-0.6998907286196947,-0.3668935765013098,0.11091010595858096
1724854953789916700,0.696916748046875,-1.149817100855708,-0.42708851748406884,0.21000848583132029
1724854953799969000,0.706968994140625,-1.20494277575016,-0.35467239283174273,0.23984306760281324
1724854953810020900,0.717020751953125,-0.6851648686528206,-0.2769859265610575,0.14029109874367712
1724854953820073000,0.727072998046875,0.19753566548824308,-0.30749738468080756,-0.06625847880542278
1724854953830124800,0.737124755859375,1.0301140321105717,-0.1951148680821061,-0.11045768601596355
1724854953840177000,0.747177001953125,1.3706231672942637,0.1859869742527604,-0.17170973483622073
1724854953850228700,0.757228759765625,1.426734930616617,0.6202277015790343,-0.053717853923141955
1724854953860280800,0.76728076171875,1.3287737380802631,0.927928207616508,0.3706006143257022
1724854953870331600,0.77733154296875,0.9247720816731453,1.2694661013260482,0.731554279384017
1724854953880384000,0.787384033203125,0.568837998342514,1.7441916915148497,1.1316083672091364
1724854953890435800,0.797435791015625,0.6519301230490208,2.2365756879910825,1.2128536950051785
1724854953900488000,0.807488037109375,0.9516969134777784,2.523478612932563,0.7699991608515382
1724854953910539800,0.817539794921875,1.595408074235916,2.6605916661620137,0.2302019635543227
1724854953920592000,0.827591796875,3.803390412688255,3.527230415557325,0.3599532558441162
1724854953930643700,0.837643798828125,3.728810680261254,3.7227825060129165,-0.44189036529660225
1724854953940695800,0.84769580078125,4.034918364149332,3.4550533603578804,-1.2147463768839835
1724854953950748000,0.857747802734375,4.189174859881401,3.431230586221814,-1.1030161867141723
1724854953960799000,0.867799072265625,4.1605706966876985,3.692592242671549,-0.9500690200150013
1724854953970851000,0.87785107421875,3.730083184415102,3.910818814010918,-1.2667173871397972
1724854953980903000,0.88790283203125,3.2310417758762835,3.8090249114438888,-1.3019897760510444
1724854953990954800,0.897954833984375,2.0833838988810776,3.538063651999831,-0.798155288016796
1724854954001006800,0.9080068359375,1.1548609402418135,3.807105341558158,-0.5802320835381746
1724854954011058700,0.91805859375,0.5486778383672237,4.477295051658153,-0.713840343517065
1724854954021110800,0.92811083984375,0.3507622336506843,4.8832267993450165,-1.0129173981159925
1724854954031163000,0.938162841796875,1.0558031846404075,4.883419107046723,-1.3165800269395111
1724854954041215000,0.948215087890625,1.9835984135270117,4.614536991964281,-1.6925754860460758
1724854954051266800,0.958266845703125,2.8233436030387877,4.5493245150804515,-1.8376719392448662
1724854954061318000,0.96831787109375,3.115240390744805,4.196454495495558,-1.4222843809485435
1724854954071370000,0.978369873046875,2.5933546977132558,3.8024481634020804,-1.066046930757165
1724854954081421800,0.988421875,1.5867723478376865,3.503673306620121,-0.33721476981341836
1724854954091477800,0.998477783203125,0.04110182571709156,3.474135077446699,0.6075117201298474
1724854954101529600,1.008529541015625,-1.830408085721731,3.207582574355602,1.7474486474841833
1724854954111581400,1.01858154296875,-3.8303798341616986,2.844856931188702,2.860786321726441
1724854954121633500,1.028633544921875,-4.884661508323252,2.7416847260057926,3.268610751292109
1724854954131685600,1.038685546875,-4.115287201371789,2.7077865480571983,3.18591493242681
1724854954141737700,1.04873779296875,-5.01237048113048,1.016558677227795,3.5264246521323916
1724854954151788800,1.058788818359375,-3.5229227814912796,-0.03132102093696594,3.2188971645742654
1724854954161840600,1.068840576171875,-1.5883224998891352,-0.30062691438943145,3.2745524163007733
1724854954171892700,1.078892822265625,-2.4603034870952367,-1.2286352015048265,4.495159794172644
1724854954181944600,1.088944580078125,-4.5615825236290695,-2.215233917015791,5.802187564390898
1724854954191996700,1.09899658203125,-5.724399391311406,-2.1445099832341072,6.698142716902494
1724854954202048500,1.109048583984375,-6.225747907748818,-1.4864344892978667,7.438937118318677
1724854954212100600,1.1191005859375,-5.902943356081843,-0.7525377384409307,8.478651337945461
1724854954222152700,1.129152587890625,-4.850014850094914,-0.7770330050110816,8.811065429478884
1724854954232204800,1.139204833984375,-3.6411247980237005,-1.446940391038358,8.68617239087522
1724854954242256600,1.149256591796875,-3.0732454155802724,-2.8723674539268016,9.37266353969574
1724854954252307700,1.1593076171875,-1.8263238851480186,-5.424576486781239,10.132792171657085
1724854954262359600,1.169359619140625,1.9114590599894523,-7.878242727819084,10.093313563227653
1724854954272411600,1.17941162109375,6.641546384933591,-9.51634311183393,9.901796135115623
1724854954282463500,1.18946337890625,7.704704608511924,-9.191111040759086,7.724353311833739
1724854954292515600,1.199515625,6.269805660662055,-6.653277154737711,6.419432743027806
1724854954302567700,1.209567626953125,4.222017975819111,-3.1016672079443928,7.5643737622797484
1724854954312619800,1.219619873046875,0.6847995424717664,0.7156371638059615,7.8206977168232195
1724854954322671600,1.229671630859375,-1.9629010779350995,0.9527993217617273,6.173381176173686
1724854954332723700,1.2397236328125,-2.2918330264411866,0.7519190220206976,4.038508497595787
1724854954342774500,1.2497744140625,-2.0993742258258163,0.9312292949885129,2.2864982412844896
1724854954352826600,1.25982666015625,-0.27188714211732146,1.8522890781402588,1.94318690816164
1724854954362878500,1.26987841796875,0.6373302275493741,3.4334804109752177,2.373188098222017
1724854954372930600,1.2799306640625,-3.4680227320462462,4.1776270454287525,3.1819097884386776
1724854954382982700,1.289982666015625,-6.551977173167467,3.9212896468818186,3.5604461641997096
1724854954393034800,1.30003466796875,-4.404931826236844,1.6034773989230393,1.1656243263185024
1724854954403086600,1.310086669921875,0.42591596657335756,-0.293486687245965,0.10525953285098075
1724854954413138700,1.320138671875,1.1864824054300784,-1.0287176093161106,-0.44861645868122574
1724854954423190500,1.3301904296875,2.9432249509602784,-2.5086352640658616,-2.5664585074812174
1724854954433242600,1.34024267578125,4.006742655500769,-2.663313784602284,-2.183681425410509
1724854954443293700,1.350293701171875,4.761184766258299,-3.5116865172058342,-2.239448320817947
1724854954453345500,1.360345458984375,9.229028975743054,-4.788004968644678,-5.88877454547584
1724854954463397400,1.3703974609375,11.404805327117442,-2.5955241507068276,-3.7710406332254407
1724854954473449700,1.38044970703125,4.344742730472982,1.8552827069982885,-1.0558148750782013
1724854954483501600,1.39050146484375,-6.541481498116254,4.21704983201772,1.3605419182628393
1724854954493553700,1.4005537109375,-9.758722712177038,1.7833979127436874,-1.095731874924898
1724854954503605500,1.41060546875,-6.937777986973524,0.2658960850089788,-1.3161954115360974
1724854954513657600,1.42065771484375,-6.322438934218883,-0.8843342728227377,-2.7937019134908914
1724854954523709400,1.43070947265625,-2.6383926938354967,-1.7416121964156626,-3.0334423975020646
1724854954533760500,1.440760498046875,5.4121057122647755,-2.3458874188423153,-2.3101368910253046
1724854954543812600,1.4508125,4.8259226113677025,-3.809916599586606,-2.350325109028816
1724854954553864700,1.46086474609375,8.742568816357851,-6.483161411094665,-2.8482886592030523
1724854954563916800,1.470916748046875,8.850363420644403,-6.297420812818408,-3.3941572853684425
1724854954573968600,1.48096875,2.8114129267483947,-5.986008008259534,-2.5149638825654983
1724854954584020700,1.491020751953125,-0.15506898115873335,-3.379436101576686,-2.109375833749771
1724854954594072600,1.501072509765625,-0.14729922394007444,0.8836100502014159,-1.6293015760093927
1724854954604124700,1.511124755859375,-2.556098441508412,2.2671856380492446,-1.3788281010597943
1724854954614176500,1.521176513671875,-2.661389538541436,0.7683814965218305,-0.2803419589906931
1724854954624228600,1.531228515625,-1.2686299427628516,-0.7066536468833684,-0.6741302644193172
1724854954634279700,1.54127978515625,-1.6396736246809362,-1.5789093593776224,-2.212484326046705
1724854954644331800,1.551331787109375,-2.08333275321573,-2.431208325514197,-2.735437940570712
1724854954654383600,1.561383544921875,-1.0995230839014052,-3.611104922813177,-0.5969307048827409
1724854954664435700,1.571435791015625,-1.024195017325133,-3.1282407420933245,0.6902028628200292
1724854954674487600,1.581487548828125,1.5469313358366488,-2.0689722194299103,1.0892243927270173
1724854954684539600,1.59153955078125,3.9214386999636885,-1.495553615298867,-0.14789339044094085
1724854954694591500,1.601591552734375,4.6432180197864765,-1.0864762630626559,-1.0507248584628104
1724854954704643800,1.611643798828125,4.186737403601407,-0.6333946416661143,-1.8958745373666286
1724854954714695700,1.62169580078125,1.7360506167657672,-1.0715297460824251,-1.248632864394784
1724854954724746800,1.631746826171875,-1.8720814277164637,-1.5162228938400744,-0.6289747793972492
1724854954734798600,1.641798583984375,-0.5864465741388499,0.43251258835941553,3.2702994350314136
1724854954744850700,1.6518505859375,-0.058628130057454104,0.32011312062591313,2.8823358902335166
1724854954754902500,1.661902587890625,-0.3389975615769624,0.9275380392551421,2.733311449936032
1724854954764954600,1.67195458984375,-0.6960732161581515,0.9511872103899717,3.0422955660432573
1724854954775006500,1.68200634765625,-0.37627193796038627,0.9362111750543117,2.4012422263175246
1724854954785058800,1.692058837890625,-0.14666819602753967,0.7845917498275637,1.9287895494967697
1724854954795110700,1.702110595703125,-0.589440641388297,0.7382163676217198,1.9891899499237535
1724854954805162800,1.712162841796875,-1.0070803625255822,0.5324702154099941,1.769454143065214
1724854954815214600,1.722214599609375,-1.696075603121519,0.32335312546044587,1.237131227171421
1724854954825265700,1.732265625,-2.0346762743353843,1.472748493772745,1.2272089680939913
1724854954835317500,1.7423173828125,-1.6192717649042605,1.5966171577647328,0.045428456744551655
1724854954845369600,1.75236962890625,-1.73965872426033,3.3447719076916576,-0.9790227272987365
1724854954855421400,1.76242138671875,-2.2914532333433626,4.0085570114463565,-0.7201917583703994
1724854954865473500,1.7724736328125,0.39371275597438216,-0.22346797912418842,0.2519289344549179
1724854954875525600,1.782525634765625,2.8225474842250344,-0.8516197517007589,0.34343232915401456
1724854954885577700,1.79257763671875,5.3041994642972945,-1.4572820445716381,2.888386860835552
1724854954895629600,1.802629638671875,2.184866835802793,-0.3259849352687597,3.0430957765102384
1724854954905681700,1.812681640625,-2.2251671358786522,1.1818144136190414,0.4390156866431236
1724854954915732700,1.822732666015625,-1.346535166350752,0.9429989354982972,-0.3615010698080063
1724854954925784600,1.83278466796875,-0.09481076568141579,-0.2623883691489696,1.646475998172164
1724854954935836700,1.842836669921875,0.3400174061439931,0.9710574475079774,2.1922668829262255
1724854954945888500,1.852888427734375,0.3018119594555348,3.2067206968292594,2.1029110216498372
1724854954955940600,1.862940673828125,-0.3986754929482937,4.0069893237382175,2.892786557099223
1724854954965992700,1.87299267578125,-0.2135515652656555,1.2052706925302743,4.3916579186439515
1724854954976044500,1.88304443359375,0.3794493989527225,-1.6189263124674558,3.790440330222249
1724854954986096600,1.8930966796875,0.6426806486666202,-3.3911130953669546,2.093307327002287
1724854954996148500,1.9031484375,1.380205965284258,-4.069145627921819,0.6995142965227366
1724854955006200600,1.91320068359375,2.2852584703564642,-4.747790154895186,1.4505004216074944
1724854955016251600,1.923251708984375,2.599698806042969,-4.558289911824464,2.8554765248805283
1724854955026303500,1.933303466796875,2.974027500981092,-4.982788997337222,4.062780769065022
1724854955036355800,1.94335595703125,1.3807517625987529,-5.143173036038875,3.3308623325437305
1724854955046407700,1.95340771484375,0.3439372830014676,-4.758150220867991,1.7315502366065978
1724854955056459800,1.963459716796875,0.7844236997842788,-4.187699526631832,0.730519091117382
1724854955066511600,1.97351171875,0.35754148199465124,-3.864425019365549,0.05497428372502327
1724854955076563700,1.983563720703125,-0.898459244287014,-4.163729452979564,-0.08043810306638478
1724854955086615800,1.99361572265625,-0.9136649967253208,-4.2422903639972205,-0.33590777886807915
1724854955096668000,2.00366796875,-0.7512848157703876,-4.294229810070991,-0.690589231789112
1724854955106719000,2.013718994140625,-1.2332196066856385,-4.257936261418462,-1.703240964706242
1724854955116771000,2.02377099609375,-1.7643208718299865,-4.302317254936695,-3.829474702015519
1724854955126823000,2.033822998046875,-1.641785210007429,-4.809110592776537,-7.087282319742441
1724854955136875000,2.043875,-1.8373720795154571,-3.9785400588452813,-7.819390141355991
1724854955146926800,2.0539267578125,-1.430168412196636,-4.480362622535228,-5.792557566258311
1724854955156979000,2.06397900390625,0.06922379488442093,-5.568756994178891,-3.3157489345639943
1724854955167030800,2.07403076171875,1.2922002034425735,-5.7312184236764905,-2.0112644190877673
1724854955177083100,2.084083251953125,1.366200674676895,-4.70578348929286,-1.4698162397131322
1724854955187135000,2.094135009765625,0.8136310895681381,-3.3887148020535705,-0.5505825029447674
1724854955197187000,2.10418701171875,-0.7427952198445796,-1.704044974565506,0.2744613765195012
1724854955207238000,2.11423779296875,-3.7557390191972253,0.4035860613435507,0.6462739969834685
1724854955217290000,2.1242900390625,-3.9806934374868868,0.7840478522092104,1.0112629089072347
1724854955227341800,2.134341796875,0.10555785821042954,0.35392508159577846,0.7776581511721015
1724854955237394000,2.144393798828125,4.263599694007635,1.8325299001812934,-0.19608605120182035
1724854955247445800,2.15444580078125,5.978189443463087,3.845006617668271,-0.913919117616862
1724854955257498000,2.164498046875,3.1490812855482098,4.784116436773538,-0.6013720483310521
1724854955267550000,2.174550048828125,-0.9861201382137834,5.999371932223439,0.44657574663385746
1724854955277602000,2.18460205078125,-2.3183377331376076,6.361282167354226,0.6993323640845716
1724854955287654000,2.19465380859375,-1.3083761160872875,6.150159875062108,0.027388503793627023
1724854955297706000,2.2047060546875,-1.327777712780237,5.38658607108295,-0.4869650401674211
1724854955307756800,2.2147568359375,-1.4128198025107384,5.783721933373808,-0.63406479601264
1724854955317809000,2.224808837890625,-0.66960708790645,5.662788446050882,-0.6314568054713309
1724854955327860700,2.23486083984375,-0.18013444883227347,6.1849576321989295,-0.5634358470380306
1724854955337912800,2.244912841796875,0.15877031989470122,6.043185354986787,-1.2186986216410993
1724854955347965000,2.25496484375,-0.04045461385473609,0.44102118124663825,-1.4619612884290516
1724854955358017000,2.26501708984375,0.3704372404575348,-1.361943017232418,-0.28084084842354057
1724854955368068900,2.27506884765625,0.7501823344212025,-0.522637972703576,-0.6243203777201474
1724854955378121000,2.285120849609375,1.2648818422757089,0.05159574720263481,-0.4435986305192113
1724854955388172800,2.2951728515625,0.5202747507035732,0.23098726871311664,-0.1445911340251565
1724854955398224000,2.305223876953125,0.16559738943576813,0.16834464231729507,0.047129123182594775
1724854955408276000,2.31527587890625,-0.8945628213703631,0.05669511616826057,-0.16854221071600914
1724854955418327800,2.325327880859375,-1.0046529892481864,0.11155074194967746,0.07734773583561182
1724854955428380000,2.3353798828125,-0.07254720368608832,-0.2059177093863487,0.18455080396980045
1724854955438432000,2.345431884765625,0.060606736654043196,-0.4794751228034496,-0.07158347322046757
1724854955448483800,2.35548388671875,0.624317162849754,-0.4963058460950851,-0.3433861519247293
1724854955458536000,2.365535888671875,0.0108054716527462,-0.316877499705553,-0.7576683793276547
1724854955468587800,2.375587890625,-0.9577508066892624,0.15992401997447012,-0.3369496891364455
1724854955478639900,2.385639892578125,-1.273475775358826,0.4685036469340324,0.38310178398042916
1724854955488691000,2.39569091796875,-0.702964583107084,0.18831307911276815,0.5561524120315909
1724854955498742800,2.40574267578125,0.22001740027889607,-0.0384685546040535,0.25583558650463817
1724854955508795100,2.415795166015625,-2.080232741373777,-1.956997406849265,0.17024506911113857
1724854955518847000,2.425846923828125,-5.346669655758142,-5.916340597793459,1.1256577882416545
1724854955528899000,2.435899169921875,3.1742192339360713,-4.118756338787079,-0.3100948538281023
1724854955538951000,2.445950927734375,3.455921375364065,-2.406673019194603,-0.9736386961728334
1724854955549003000,2.4560029296875,2.607015558797121,-1.6771750878185032,0.454857252766937
1724854955559054800,2.466054931640625,2.680391760653257,-3.778198103764653,1.8123732473373413
1724854955569107000,2.47610693359375,1.8696366649128495,-4.22058239005804,0.9701631290167569
1724854955579157800,2.48615771484375,-0.1312709030725062,-3.3058898038506506,-1.3874661655455827
1724854955589209900,2.4962099609375,-0.21127543702721593,-2.3680139104545117,-3.2033401144802567
1724854955599262000,2.506261962890625,-0.7818634939074516,-3.020706834569573,-4.447477421021461
1724854955609314000,2.51631396484375,1.0491032486103475,-2.7382869002610444,-4.961961897885799
1724854955619366000,2.526365966796875,1.0402328366734086,-4.389330937001109,-7.013654773473739
1724854955629418000,2.53641796875,-0.570991230853647,-2.329270630562305,-6.087865623712539
1724854955639469800,2.5464697265625,-3.1390520589649675,4.242786038559675,-0.188669637465477
1724854955649522000,2.55652197265625,-3.799944071626663,7.676129086890816,6.004456688141823
1724854955659574000,2.566573974609375,-0.9533271450281142,8.362927694225311,10.65543072888255
1724854955669624800,2.576624755859375,-1.2193642459429799,1.8091367496341466,9.815902981513737
1724854955679677000,2.586677001953125,-0.3658848378501832,-5.16714778586626,3.589397533395886
1724854955689729000,2.59672900390625,2.1031553517997263,-5.809445572695136,-0.5225874115601181
1724854955699780900,2.60678076171875,0.621224019140005,-2.6108956151008607,-0.9176914757624268
1724854955709833000,2.6168330078125,0.12071911391988396,2.3357231677025556,-0.08779635687470436
1724854955719884800,2.626884765625,-1.2764146052896976,4.10588575129807,-1.8433678127989173
1724854955729937000,2.63693701171875,-1.2179450267948209,3.3963328758418556,-3.3076468766510483
1724854955739988700,2.64698876953125,0.07782324439287185,2.515137485566735,-1.829102556081116
1724854955750041000,2.657041015625,1.5929295552931726,4.143498565855622,0.08864625170230865
1724854955760093000,2.667093017578125,1.0595030620716512,4.482552826055884,1.1310504410654305
1724854955770144000,2.67714404296875,0.24299393284916876,3.856503578716516,1.836212095825374
1724854955780195800,2.68719580078125,0.49320086581706996,3.5443776574522254,1.4506789930447934
1724854955790248000,2.697248046875,1.0349322460472583,3.734401632136106,0.8057809605896472
1724854955800299800,2.7072998046875,1.4029144945681093,4.120608688655495,0.6114189567014575
1724854955810351900,2.717351806640625,1.4868122365690768,3.3074639212995764,1.0940353001400829
1724854955820403700,2.72740380859375,0.8209178855754434,1.6121254002809524,1.5122385003790257
1724854955830456000,2.7374560546875,-1.798172726418823,-1.492055251789093,1.083141273421049
1724854955840508000,2.7475078125,-3.2219892853707073,-6.175341662591696,-2.9604245075643063
1724854955850560000,2.75756005859375,-1.5266716610096394,-4.768642388787866,-4.2333980324894185
1724854955860611000,2.767611083984375,0.5652129397131502,-1.8120605281263589,-3.708158060593903
1724854955870663000,2.777662841796875,0.9798176770687103,0.7653700397461652,-0.8116790787175298
1724854955880715000,2.787715087890625,1.140239563562721,2.828568644210696,2.6611449161306022
1724854955890766800,2.797766845703125,-0.1745280071273446,0.8557757023364305,2.139645007546246
1724854955900819000,2.80781884765625,0.0946656581223011,-0.8323030568122863,0.423205246309936
1724854955910871000,2.81787109375,0.1470715526640415,-1.0236088880002499,-0.4430667155995965
1724854955920923000,2.8279228515625,0.004125847758352757,-0.7154279049694537,-0.07904051122814416
1724854955930975000,2.83797509765625,-0.02198036113977432,-0.391485289183259,0.6657414985194802
1724854955941026800,2.84802685546875,-0.0713224841967225,-0.16053426082730293,1.1796698028057813
1724854955951078000,2.858077880859375,-0.04784092471376061,-0.04798807809948921,0.9541396304547786
1724854955961130000,2.8681298828125,0.03436155767664313,-0.03529226265549659,0.40546997539401053
1724854955971181800,2.878181884765625,0.10378799899369477,-0.07451134336590766,0.04472323108464479
1724854955981234000,2.88823388671875,0.11769728188067674,-0.16764029344022274,-0.11561141551733016
1724854955991285800,2.89828564453125,0.11294833378791809,-0.3014122195482254,-0.1697489561572671
1724854956001338000,2.908338134765625,0.16301716368421912,-0.33463585923612116,-0.16025427484214305
1724854956011390000,2.918389892578125,0.25227482528313994,-0.3461193762809038,0.05345803394317627
1724854956021442000,2.928442138671875,0.4133445081613958,-0.20016952112317085,0.16598726553618906
1724854956031494000,2.938493896484375,0.5379305266425013,-0.22748305998444557,0.4330038790076971
1724854956041546000,2.9485458984375,0.5535773008465766,-0.19362346048057077,0.4748904253616929
1724854956051596800,2.9585966796875,0.4135480679094791,-0.2765682856708765,0.5470207188099623
1724854956061649000,2.96864892578125,0.14163520682901143,-0.43080140052735805,0.7010320076093077
1724854956071700700,2.97870068359375,-0.0672854837656021,-0.49215574067831036,0.5584551360160112
1724854956081753000,2.988753173828125,-0.1026478890478611,-0.44898646103739737,0.2254296345859766
1724854956091801600,2.998801513671875,-0.023373861324787137,-0.34089725771844387,-0.1029895420923829
1724854956101853700,3.008853759765625,0.20812603308558464,-0.18159984520971775,-0.35152386567294597
1724854956111905500,3.018905517578125,0.3654816638767719,0.030212767434120175,-0.47177755403816696
1724854956121957600,3.02895751953125,0.4597591994643211,0.033252865782380105,-0.4183654050633311
1724854956132008400,3.039008544921875,0.4900888712763786,-0.04838321489691734,-0.4499360168471932
1724854956142060500,3.049060546875,0.48854105731248854,-0.23680735316872595,-0.35273967120349403
1724854956152112400,3.0591123046875,0.5118808702372014,-0.25752280893921853,-0.4967079971551895
1724854956162164500,3.06916455078125,0.5152067997895181,-0.09309504780471324,-0.5443360097706318
1724854956172216600,3.079216552734375,0.33239173357114193,0.02843231375813484,-0.18778174871504305
1724854956182268700,3.0892685546875,0.1006239820048213,0.1690840625077486,-0.11167144571989775
1724854956192320500,3.099320556640625,-0.01858984191864729,0.15936580156981944,-0.06842208658009767
1724854956202372600,3.10937255859375,-0.1522191446855664,0.012750760501623153,0.18147183491587637
1724854956212424400,3.119424560546875,-0.2633887783631682,-0.08527706753015518,0.16681144140064716
1724854956222476500,3.1294765625,-0.3376698201045394,-0.013731003710627555,0.23507424576580524
1724854956232527600,3.139527587890625,-0.34778701723217964,0.01658113244473934,0.3975014807328582
1724854956242579500,3.149579345703125,-0.24352701681256292,-0.05480243428945541,0.9576847557157278
1724854956252631600,3.159631591796875,-0.46268458539173,-0.0839648158878088,0.9207803816884755
1724854956262683600,3.16968359375,-0.7181599602818489,-0.06048632514476776,0.5931450488641857
1724854956272735500,3.179735595703125,-0.5175673914410174,-0.04325169722735882,0.18259440920501946
1724854956282787600,3.18978759765625,-0.3206017809256911,-0.03235445563793182,-0.2847948467463255
1724854956292839400,3.19983935546875,-0.1679600269138813,-0.05940905130207538,-0.5689250921040773
1724854956302891500,3.2098916015625,-0.08943184912204742,0.019147183540463446,-0.8283642560586333
1724854956312943400,3.219943359375,0.02260696860551834,-0.07561024451851844,-0.3461535708114505
1724854956322994400,3.229994384765625,0.06232406196594238,-0.17054127557873724,-0.2947510080933571
1724854956333046500,3.240046630859375,0.18115853118300437,-0.3213625361651182,-0.01076017120629549
1724854956343098600,3.2500986328125,0.03360167922005057,-0.2811941919058561,0.25913725839853285
1724854956353150700,3.260150634765625,0.05453238517642021,0.03379822470545769,0.4621589540824294
1724854956363202600,3.27020263671875,-0.10654007418081164,-0.022724457505345342,0.7590814609959721
1724854956373254700,3.280254638671875,-0.37154695526510473,-0.07972469410002231,0.5164385335415601
1724854956383306500,3.290306396484375,-0.4310638508558273,-0.12333645681142806,0.43656274053305383
1724854956393358600,3.300358642578125,-0.4598800493650138,-0.2124094094932079,0.35897184359133244
1724854956403410400,3.310410400390625,-0.31729484833478927,-0.1690139198809862,0.2869225064247846
1724854956413461500,3.32046142578125,-0.09480857372432946,0.037243396723270414,0.23080723597109318
1724854956423513600,3.330513671875,0.04236030134558678,0.27586042966246604,0.240761059230566
1724854956433565700,3.340565673828125,0.23522417563050985,0.4066951332747936,0.24756693985313175
1724854956443617500,3.350617431640625,0.26762919241189953,0.026178981873393056,0.8463917879194021
1724854956453669600,3.360669677734375,0.41711365143656726,-0.23669103331267832,0.8557552440702915
1724854956463721500,3.370721435546875,0.485896534153074,-0.3951426426470279,1.0517486485525964
1724854956473773600,3.380773681640625,0.2318330718874931,-0.5014204126298427,1.0046072504103183
1724854956483825400,3.390825439453125,0.0438308122895658,-0.5149111778438091,0.811848297804594
1724854956493877800,3.400877685546875,-0.17983984979987144,-0.45816637731492516,0.5499842447906732
1724854956503928300,3.41092822265625,-0.4207856179475784,-0.3358341291099787,0.25595687479674817
1724854956513980700,3.420980712890625,-0.30419015982896086,-0.23082067997455596,0.1185159047871828
1724854956524032500,3.431032470703125,-0.15399199957698584,-0.12934066566228866,0.12689502607584
1724854956534084600,3.441084716796875,-0.14545827224850655,-0.10790449440181255,0.17150339860916136
1724854956544136400,3.451136474609375,-0.013786971681565046,0.1364268245309591,-0.04160539132505655
1724854956554188500,3.4611884765625,0.07730097408443688,-0.0975800842642784,0.18104162680506705
1724854956564240400,3.471240478515625,0.40226679543852806,-0.5478139150142669,0.637503830550611
1724854956574292500,3.48129248046875,0.7983785753786563,-0.13007657872140407,0.4389332690566778
1724854956584344600,3.491344482421875,0.5521338240399957,0.5647001678854227,0.7466390357911586
1724854956594396700,3.501396728515625,-0.9763760121822357,1.5755097800672053,1.9097770982518791
1724854956604447500,3.511447509765625,-3.046619274461269,1.7244716765224932,2.583803902296722
1724854956614499600,3.52149951171875,-3.60432914506793,0.9428256247580051,2.2832833708912132
1724854956624551400,3.531551513671875,-2.8223250736460086,0.34766368311345575,1.0744102699548006
1724854956634603500,3.541603515625,-1.7244412813842296,-0.5614928962767124,0.34709055940061806
1724854956644655400,3.5516552734375,-0.7888517453595996,-0.23853344630897044,-0.08606558755934238
1724854956654707500,3.56170751953125,-0.8752358973488211,0.4052922807395458,0.11574351746439933
1724854956664759600,3.571759521484375,-0.3483119178891182,1.6325491796284912,0.46985827641338107
1724854956674811600,3.581811767578125,-0.7116250055551528,2.688240136066079,0.0563017329365015
1724854956684863500,3.591863525390625,-1.1892376954875885,3.067751494339108,-0.4716986435830593
1724854956694914600,3.60191455078125,-0.9571602934502065,2.6902339402318,-0.9706097037404775
1724854956704966700,3.611966552734375,0.11022095465064048,1.1417805093944071,-1.1063654971420764
1724854956715018500,3.6220185546875,1.08568964272961,-0.3146855426192283,-0.47780339019894597
1724854956725070600,3.632070556640625,1.8040743516780435,-0.801419258248806,0.43969840821027756
1724854956735122400,3.642122314453125,1.774095392999798,-1.640287664926052,1.3788114421859383
1724854956745174500,3.652174560546875,1.4314930849291383,-2.082765474721789,1.9534996278613805
1724854956755226600,3.6622265625,1.6057083728455006,-1.886366119787097,1.9007988420262931
1724854956765278500,3.672278564453125,2.6585353181540965,-2.7279934697836636,1.145855796009302
1724854956775330600,3.68233056640625,2.583467509949207,-2.7452807046711443,0.38175636072084307
1724854956785382400,3.69238232421875,2.1526247544981536,-1.579562854850292,0.4001074254475534
1724854956795433500,3.70243359375,1.1943452477596699,-2.157759633168578,0.4368789668753743
1724854956805485600,3.712485595703125,1.6327216135859488,-1.8424650187402962,0.9527925997599959
1724854956815537400,3.722537353515625,0.17841946160793304,-2.0201661029458045,0.9322175753735006
1724854956825589800,3.73258984375,-0.38441213592663404,-2.078826966229081,0.466440723054856
1724854956835641600,3.7426416015625,-0.42909868826270103,-1.521876389557123,-0.24667846658080814
1724854956845693700,3.752693603515625,-0.440182392334938,-1.14136491433084,-1.3636184030987322
1724854956855745500,3.76274560546875,-0.025658172869682312,-0.5217249495118856,-2.2465014541998505
1724854956865797600,3.772797607421875,0.08097951646670698,-0.27414135078489776,-2.3674194516927
1724854956875849500,3.782849365234375,0.3873065421938896,-0.00959726490676403,-2.1410484446033835
1724854956885901600,3.792901611328125,-0.6764616299763322,0.563496637314558,-2.1454038633339105
1724854956895952400,3.802952392578125,-1.287456223785877,0.9360644600600003,-0.9714503923483192
1724854956906004500,3.81300439453125,-1.4281141100153325,1.0753455049782992,-0.5565002025559544
1724854956916056600,3.823056640625,-1.4515006846912204,0.9735480952799319,-0.22631401620507238
1724854956926108700,3.833108642578125,-0.74294368840456,0.9980565135926007,-0.2805067941635847
1724854956936160500,3.843160400390625,-0.06222717746272683,0.8791074780851602,-0.020279840832203626
1724854956946212600,3.853212646484375,0.2785829864941537,0.7536585591644048,0.2135581411369145
1724854956956264400,3.863264404296875,0.4147241259515285,0.6422995403945445,0.8900995583511888
1724854956966316500,3.873316650390625,0.298282543220371,0.5439174920976162,0.9979689814396202
1724854956976368400,3.883368408203125,0.3728999773092568,0.5973246726363897,0.9850770589016378
1724854956986420700,3.893420654296875,0.4566977660670876,0.7969312991797923,0.6923083106666803
1724854956996471600,3.903471435546875,0.44360272217243907,0.8653215293169021,0.45054918030947444
1724854957006523600,3.913523681640625,0.33785920519679785,0.6559177313804626,0.3178067433796823
1724854957016575500,3.923575439453125,0.1997708771944046,0.24801439135968684,0.5210933736100792
1724854957026627600,3.933627685546875,0.03482610644847155,-0.21726211022138595,0.8016216489531099
1724854957036679400,3.943679443359375,-0.10436083044558762,-0.6370236458182335,1.129571746814996
1724854957046731500,3.9537314453125,-0.27974297018423677,-0.8483388303339481,1.4528652510426938
1724854957056783400,3.963783447265625,-0.42823958721533417,-0.9823948340803385,1.5153253604784607
1724854957066835700,3.973835693359375,-0.4721145309075713,-0.8981909487396478,1.331596832676977
1724854957076887600,3.983887451171875,-0.5973357785522937,-0.7433610370337963,0.9747039873167872
1724854957086939600,3.993939697265625,-0.8601026256248354,-0.6242594413131475,0.7617902815632521
1724854957096990500,4.003990478515625,-0.9269204918786883,-0.4924059160470962,0.6815554459840059
1724854957107042600,4.01404248046875,-0.8497709089636802,-0.4777326630502939,0.613170038152486
1724854957117094400,4.024094482421875,-0.9889048004962503,-0.6587403875857591,0.492853952075541
1724854957127146800,4.034146728515625,-0.8758324019372463,-0.4170774110794067,0.025496844828128813
1724854957137198600,4.044198486328125,-0.5842775595366955,-0.09342530267238616,-0.1379685010150075
1724854957147250700,4.054250732421875,-0.3623101942338049,0.08374912731051444,0.05461743311136961
1724854957157302500,4.064302490234375,-0.12612111909389495,0.2703109788417816,0.19715061169341205
1724854957167354600,4.074354736328125,0.1802446312084794,0.34911797357499597,0.3871148190140724
1724854957177406500,4.084406494140625,0.4166984947644174,0.3390519221127033,0.6212224117048084
1724854957187458600,4.09445849609375,0.4371298728965223,0.10166004705429077,0.7653348223023116
1724854957197509600,4.104509521484375,0.5708228885494172,-0.05634907920956611,0.8383554887190461
1724854957207561700,4.114561767578125,0.6867544759318233,-0.12943944986164568,0.7431739900290966
1724854957217613800,4.12461376953125,0.7464905672311782,-0.13510171340703964,0.7493734291911125
1724854957227665700,4.134665771484375,0.69993208354339,-0.0959767407208681,0.8346409982405603
1724854957237717500,4.144717529296875,0.6608426205620169,0.06291209098696708,0.869037773361057
1724854957247769600,4.15476953125,0.6534031182110309,0.1528980668604374,0.6824735837422311
1724854957257821400,4.164821533203125,0.6397450336061418,-0.01996492966413498,0.5956938565641642
1724854957267873500,4.17487353515625,0.4055237514078617,-0.05191898780763149,0.6022749885201454
1724854957277925600,4.184925537109375,0.16943565242439507,-0.29767069493234155,0.9733511114031076
1724854957287977700,4.194977783203125,0.20603797476515173,-0.24207798704802988,0.829360573619604
1724854957298028800,4.20502880859375,0.4055298888877034,-0.3022229514092207,1.0103894870735703
1724854957308080600,4.21508056640625,0.4112883062839508,-0.056040451651811596,1.229198534476012
1724854957318132700,4.2251328125,0.5021557411670684,0.41789515720307824,1.0929784845635295
1724854957328184600,4.2351845703125,0.46266573456078763,0.35623569662570953,1.3787168957702816
1724854957338236700,4.245236572265625,0.2491840196609497,0.022980478093028067,1.6229650664642452
1724854957348288500,4.25528857421875,0.6327323783650994,-0.14567980604469774,1.3440912803299725
1724854957358340600,4.265340576171875,1.2062158644258976,-0.09600947394669056,0.9161204270534217
1724854957368392700,4.275392822265625,1.2654054277583957,-0.24847265652120112,1.0605467259056867
1724854957378444500,4.285444580078125,1.0338523418560623,0.1652852547466755,0.7158534369051456
1724854957388496600,4.29549658203125,1.0881623164534568,0.8773597576349973,0.15125804456844924
1724854957398547700,4.305547607421875,0.635453181631118,0.9235515999674796,0.0808776635274291
1724854957408599600,4.315599609375,0.09310235432833433,1.077981114178896,-0.18512860385775565
1724854957418651600,4.325651611328125,0.19643851790130137,0.6554957065761089,-0.005539221687614918
1724854957428703500,4.335703369140625,0.8377391103863716,0.2554045016109943,0.24078736271560192
1724854957438755600,4.345755615234375,1.1885165416061878,-0.09014321226179599,0.47971506903916594
1724854957448807700,4.3558076171875,0.967930547659099,-0.6162228498518466,1.0648051140025256
1724854957458859800,4.36585986328125,0.8939759613931179,-0.20505846220850943,0.8981646452546119
1724854957468911600,4.37591162109375,0.5407198651000857,0.27611645025014875,0.3570350303098559
1724854957478963700,4.385963623046875,1.2751783414930105,0.5402221447110176,-0.47566900851875543
1724854957489015600,4.396015625,1.6177821108683943,0.8462269527465105,-1.108266946849227
1724854957499066600,4.406066650390625,0.6399763581439852,0.9459691834807396,-0.9436945165470242
1724854957509118500,4.416118408203125,-1.3573884226679802,0.5857838724464177,-0.9524804650709032
1724854957519170600,4.426170654296875,-2.3204472726374865,-0.20745850908756255,-0.010681553012132644
1724854957529222700,4.43622265625,-1.784516103118658,-0.0021837737798690794,0.9833297768428921
1724854957539274800,4.446274658203125,-0.2133969592258334,-0.5031745628207922,1.4830255576372147
1724854957549326600,4.45632666015625,1.0404016173690558,-0.12916180196404456,1.2803680190905928
1724854957559378700,4.466378662109375,0.8777809056565165,0.042642625418305394,0.5633154355287552
1724854957569430500,4.476430419921875,0.26722207291573286,0.18414309995174408,0.04193330810517072
1724854957579482600,4.486482666015625,-0.3225263192474842,0.45696752291917797,-0.42215632177889345
1724854957589534500,4.496534423828125,-0.12296820802092552,0.06599076777994632,-0.4081739736557007
1724854957599585500,4.50658544921875,-0.1038894135415554,0.039032033705711365,0.029592005187273025
1724854957609637600,4.5166376953125,0.09465952064245939,-0.11893851411342621,0.8336945111706853
1724854957619689700,4.526689697265625,0.5057490894839167,-0.414092842310667,1.607071916283667
1724854957629741600,4.536741455078125,0.4342398505434394,-0.8486158937096595,1.9485551571965216
1724854957639793700,4.546793701171875,0.01975187143534422,-1.0982336286127568,2.3328587181821465
1724854957649845500,4.556845458984375,-0.23435762192904946,-0.7612666960805654,2.135250571979582
1724854957659897600,4.566897705078125,-0.3132923346951604,-0.4086164567261934,1.2576485300213098
1724854957669949400,4.576949462890625,0.31352438988536596,-0.7019768872439861,0.7192705518722534
1724854957680001800,4.587001708984375,0.38244448911547657,-0.3648983110308647,0.40149171941280365
1724854957690052600,4.597052490234375,0.7146785479068756,-0.415745285692811,0.2614180628120899
1724854957700104700,4.607104736328125,0.6202291628837585,0.251324538820982,0.9555851530879735
1724854957710156800,4.61715673828125,0.747675100840628,0.2874830629169941,0.9279021963924169
1724854957720208600,4.627208740234375,0.8113102454051375,0.18047171796262262,1.1304431228220462
1724854957730260700,4.6372607421875,0.5893553011924028,0.019511925199627876,1.4357809913814068
1724854957740312600,4.6473125,0.7559118910491466,-0.1904430768787861,1.2234230198144913
1724854957750364400,4.657364501953125,0.6842611978113651,0.006701543465256691,1.871988634866476
1724854957760416500,4.66741650390625,0.34703707564771175,0.5455319415569305,1.8400538659453392
1724854957770468600,4.677468505859375,0.7512585122853517,0.189374570864439,1.9578011244475841
1724854957780520700,4.687520751953125,0.25389731191843745,0.2047556798696518,1.45688690777421
1724854957790571800,4.69757177734375,0.3674555942982435,-0.27924948757886886,1.19748310739398
1724854957800623600,4.70762353515625,-0.19038228660225867,-0.7221329555660486,1.081917869105935
1724854957810675700,4.71767578125,-0.5274091326281428,-0.6713999626725912,0.71541621453166
1724854957820727600,4.7277275390625,-0.6901058321863413,-0.37785891489088536,0.7109130578935146
1724854957830779600,4.737779541015625,-0.6224041688352823,-0.3505634962081909,0.6111036071419715
1724854957840831500,4.74783154296875,-0.7201087562620639,-0.433000371876359,0.5601344674050808
1724854957850883800,4.7578837890625,-0.8416425475656986,-0.23500293409526346,0.5094967515796422
1724854957860935700,4.767935791015625,-0.794554048654437,-0.45061552354395384,0.3006096709936857
1724854957870987800,4.77798779296875,-0.8793927247673272,-0.38872517682015895,0.18937632443010807
1724854957881039600,4.78803955078125,-0.8355325402528047,-0.5935559677526354,-0.12476502830982207
1724854957891090700,4.798090576171875,-0.34187457831799983,-0.7694657846271992,-0.8936346006095409
1724854957901142500,4.808142578125,-0.267094939404726,-0.8628703367725015,-0.38812370379567146
1724854957911194600,4.818194580078125,-0.6071218440294266,-0.8344131808340549,-0.3895762406915426
1724854957921246500,4.82824658203125,-0.8502093003809451,-1.3313935651898383,0.04709434413015842
1724854957931298800,4.838298828125,-0.8168255016952752,-1.2025085343405604,-0.08290507770180702
1724854957941350700,4.8483505859375,-0.5823229183375835,-1.2633356357470154,0.09939677829742431
1724854957951402800,4.85840283203125,-0.45903497684299943,-0.9366445980355143,-0.4201642711788416
1724854957961454600,4.86845458984375,-0.8091513138055801,-0.7332637136504053,0.18040742055475711
1724854957971506700,4.878506591796875,-0.5070446822524071,-0.8718076764658093,-0.5977887830168008
1724854957981558500,4.88855859375,-0.5350877044320106,-1.4201862396255134,-0.442215359467268
1724854957991609600,4.898609619140625,-0.6201806475669145,-0.9995300932765007,-0.43973523308932777
1724854958001661400,4.908661376953125,-0.7640057656556367,-0.3289525529026985,-0.5407084669232368
1724854958011713500,4.918713623046875,-0.8081020970135927,-0.018757891961932182,-0.6652823565751314
1724854958021765600,4.928765625,-0.6851818197876215,0.4230114773035049,-1.0216478170603513
1724854958031817700,4.938817626953125,-0.4930880530923605,0.6311410175204276,-1.2186848853766918
1724854958041869600,4.94886962890625,-0.5533259564340114,0.5445473144337535,-1.283663261243701
1724854958051921700,4.958921630859375,-0.5132680868119001,0.28161972384154793,-1.221584698471427
1724854958061973500,4.968973388671875,-0.3642529988646507,-0.08383125263601542,-0.899486833769083
1724854958072025600,4.979025634765625,-0.21747487618923186,-0.12714666274935008,-0.4306926794558763
1724854958082077400,4.989077392578125,-0.6029144554674625,-0.03677081077545881,-0.7173533200740814
1724854958092127700,4.999127685546875,-0.03939268371164799,-0.0219181095585227,-0.6890846724450588
1724854958102179800,5.009179931640625,0.12042086162567138,0.06338555371761322,-0.9786959795624017
1724854958112232000,5.01923193359375,-0.11150748732984066,-0.21505378652215001,-1.005173067599535
1724854958122284000,5.029283935546875,-0.03355564812123775,0.04733312132209539,-1.0968465581685305
1724854958132335900,5.0393359375,-0.15027590166330337,-0.6374906788080931,-0.6258885038197041
1724854958142388000,5.049387939453125,-0.16564415118694303,-0.5351239447891711,-0.4578378760129213
1724854958152439800,5.059439697265625,-0.17815759580135346,-1.1698477892324328,-0.0030260698229074476
1724854958162492000,5.069491943359375,-0.12874503785669802,-1.3147706394299865,0.2739350145578384
1724854958172543700,5.079543701171875,0.11312310583293438,-1.293258480323851,0.4492863207668066
1724854958182596000,5.08959619140625,-0.20249065754711626,-1.4918082912907003,0.8292191193222999
1724854958192647000,5.09964697265625,-0.31654899840354916,-1.3661962907627223,0.8810434145838022
1724854958202699000,5.109698974609375,-0.5108113413095474,-1.363639884278178,0.7589256859123706
1724854958212750800,5.119750732421875,-0.238295545899868,-1.2672142307460308,0.5720820948302745
1724854958222803000,5.129802978515625,0.3666407707840204,-0.9683362058505416,0.7743354364901781
1724854958232854800,5.139854736328125,0.9637924249410629,-0.04627104504853487,1.3568471553981303
1724854958242907000,5.149906982421875,1.150669333770871,1.1375421411722897,1.8904244552671907
1724854958252958700,5.159958740234375,0.4018634753346443,1.3673448762759566,1.9557289943486451
1724854958263011000,5.170010986328125,-0.24081600428819655,0.7121016831561923,1.4160638989984988
1724854958273063000,5.18006298828125,0.0652858343809843,-0.12350742946416139,0.541066194319725
1724854958283114000,5.190114013671875,0.1425146200120449,-0.8808885162830352,0.005480477237701416
1724854958293165800,5.200165771484375,-0.33270869056582447,-1.4183657462000847,0.03436930259168148
1724854958303218000,5.210218017578125,-1.0784271043807268,-1.6618503851756452,0.3754150288701057
1724854958313269800,5.220269775390625,-1.5595914954453707,-2.003065330541134,0.9851958629757165
1724854958323321900,5.23032177734375,-1.5779729553103445,-1.8612655808001755,0.9075070586174726
1724854958333373700,5.240373779296875,-0.916305282101035,-1.6823083590537309,1.3069371693253515
1724854958343426000,5.250426025390625,-0.9256284062415361,-1.2898945568487048,1.67729316124022
1724854958353478000,5.260477783203125,-0.8563152160406112,-0.784119456140697,1.9013222813785076
1724854958363530000,5.270530029296875,-0.856289497077465,-0.76653616091609,1.845011196091771
1724854958373581000,5.2805810546875,-0.6508306373745203,-0.7972703218758106,1.2293079861998557
1724854958383633000,5.2906328125,-0.16683832940757273,-0.7476853299736976,0.5067617736577987
1724854958393685000,5.30068505859375,-0.7004226435393095,-0.47264293869584795,0.09650105685591698
1724854958403736800,5.31073681640625,-0.5857523082643747,-0.7817524347484112,0.07338847681581974
1724854958413788700,5.32078857421875,-0.28230829062759877,-0.8916367047905921,-0.2691419350624084
1724854958423840800,5.3308408203125,-0.10768763678073882,-0.8433996203660964,-0.08382745324373245
1724854958433892900,5.340892822265625,-0.30154256792962547,-1.2946639632076025,-0.05038637141287326
1724854958443945000,5.350945068359375,-0.11497604022324084,-0.8510837451279163,0.018180968856811523
1724854958453996800,5.360996826171875,-0.24181086054444312,-0.6252931682750582,0.3053659256100654
1724854958464047900,5.3710478515625,-0.07390051799118519,-0.42466450520753857,0.5450467883884906
1724854958474100000,5.381099853515625,-1.6063421407043932,0.8601867967769503,0.4827776714801788
1724854958484151800,5.39115185546875,-1.0755483340740204,0.7129466095477343,0.862591227570176
1724854958494204000,5.401203857421875,-1.0841776307314634,0.430605585694313,0.7179799275398254
1724854958504255700,5.411255859375,-1.0849363401442766,0.8585285081759094,0.2706207754433155
1724854958514308000,5.42130810546875,-0.8278367250531912,0.9349676047340035,0.19805004475116728
1724854958524360000,5.43135986328125,-0.7904588882952928,1.3249094638675452,0.3082949647992849
1724854958534412000,5.441412109375,-0.8159545640796423,1.4430264324650168,0.39544951663911343
1724854958544464000,5.4514638671875,-0.5978168400675058,1.3161278992578387,0.36728725199401374
1724854958554515700,5.461515625,-0.3943956236720085,1.281533263477683,0.27123686151504517
1724854958564566800,5.47156689453125,-0.3778320268839597,1.3908181063219904,-0.4758545942187309
1724854958574619000,5.481618896484375,-0.5706885946452618,1.0727081422120333,-1.3238497256815434
1724854958584670700,5.491670654296875,-1.2988041317522525,0.2618880184113979,-1.5246511149674653
1724854958594723000,5.50172314453125,-1.5031138214200734,-0.15302753845900297,-1.5530097789674997
1724854958604775000,5.51177490234375,-1.678494353723526,-0.1576595821738243,-1.2226035201251506
1724854958614827000,5.521826904296875,-1.369365860709548,0.038460955819487566,-1.1148889953374863
1724854958624878800,5.53187890625,-0.8077724266678095,0.4031540996670723,-1.2697808663636445
1724854958634931000,5.541930908203125,0.046567105385661126,0.11928455107212066,-0.6008224516242742
1724854958644982800,5.551982666015625,1.9815140084683893,0.44423166772574185,0.9524930322915315
1724854958655033900,5.562033935546875,3.3732600432902573,1.7011664965197444,2.534896079003811
1724854958665085700,5.572085693359375,1.9440549231678246,2.736903629209101,2.9931618250399827
1724854958675137800,5.5821376953125,0.7201239538311958,2.191322003291547,2.073048967349529
1724854958685190000,5.59218994140625,1.107448031681776,2.534161334988475,1.7248948703706264
1724854958695242000,5.602241943359375,0.07370645672380924,0.6022231122024357,1.9608581739306448
1724854958705293800,5.6122939453125,-1.8776959065973757,-1.8087888129793106,1.446854758581519
1724854958715346000,5.622345947265625,-3.070163816177845,-3.591663724762201,1.4669798472434281
1724854958725397800,5.632397705078125,-3.534371227222681,-3.5976115272507068,0.19461597864925861
1724854958735449900,5.642449951171875,-2.155486427539587,-1.6813915364697574,-0.7131587909936904
1724854958745501000,5.6525009765625,-2.3609143075823784,0.4788746726922691,-0.9343874667584896
1724854958755552800,5.662552734375,-1.8005542147278784,1.0118363248810172,-0.7596978393286467
1724854958765604900,5.67260498046875,-0.417281993740797,0.8631704887628555,0.4300006055384874
1724854958775657000,5.682656982421875,0.3109054395586252,1.3454796659484505,1.2668319534301757
1724854958785708800,5.692708740234375,0.6227402689218521,0.47783363920673727,2.5497493647426364
1724854958795761000,5.702760986328125,-0.15468962645232676,-0.6359624463275074,2.860430347895622
1724854958805812700,5.712812744140625,-0.5788695630133152,-0.3801270059533417,3.120940063691139
1724854958815864800,5.72286474609375,-0.4656593634188175,0.5306126048445702,2.896938416081667
1724854958825916700,5.732916748046875,-0.8983189590334891,0.9939876567184924,2.1264269217938185
1724854958835967700,5.7429677734375,-1.1918974162161349,-0.35868119008168575,0.7429846049368382
1724854958846020000,5.75302001953125,-2.078446442478895,-0.15138035577386616,-0.2411316461086273
1724854958856072000,5.763072021484375,-2.2208722151637077,0.05164557769373059,-0.35406010615229605
1724854958866124000,5.7731240234375,-1.121301200467348,0.47897068041265006,0.042889293655753134
1724854958876176000,5.78317578125,-0.36077567814290523,0.7971336898840964,0.25988719998300075
1724854958886228000,5.79322802734375,-0.0723749158591032,0.6843997294992208,0.7974497700959443
1724854958896279800,5.80327978515625,-0.02060088948011398,0.590165302401036,0.8846119207203388
1724854958906332000,5.813331787109375,-0.1583095705151558,0.5252557539865375,0.5178267730295658
1724854958916384000,5.823384033203125,-0.4025374290734529,0.6520831216536462,0.12208499544560908
1724854958926434800,5.833434814453125,-0.44515141291916366,0.8590149765186011,-0.12866963453292846
1724854958936487000,5.84348681640625,-0.48290159012079237,1.0451128637999296,-0.3186304808527231
1724854958946539000,5.8535390625,-0.5250765980273485,1.1158882355079054,-0.2279606143683195
1724854958956590800,5.8635908203125,-0.8911901300668716,0.9716862469308077,-0.1763426553338766
1724854958966643000,5.873642822265625,-0.9435603687733412,0.7664720096386969,-0.08546645262241363
1724854958976694800,5.88369482421875,-1.0710551143079996,0.559095187485218,0.18745032480359075
1724854958986747000,5.893746826171875,-1.5928765099316835,0.5886800322793424,-0.17511574388742446
1724854958996798700,5.903798828125,-1.0136182398617266,0.8784748792700469,-0.3511854274988174
1724854959006849800,5.913849853515625,-1.0798282033503055,1.1901010343186555,-0.3262397868126631
1724854959016902000,5.92390185546875,-0.3515782262086868,1.2513703265346585,0.19073942947685718
1724854959026954000,5.9339541015625,-0.16404139216542243,1.3246779931992292,0.9722241531997918
1724854959037005800,5.944005859375,-0.2329711360067129,1.1865549592096358,1.2159966692060231
1724854959047058000,5.954057861328125,-0.7916963211357593,1.325318044668436,0.8429027767598628
1724854959057109800,5.96410986328125,-1.1800316218554974,0.6876769976042211,0.4268547087281942
1724854959067161900,5.974161865234375,-0.9570938040852546,0.160627857394889,0.345889659178257
1724854959077213700,5.984213623046875,-0.8881365877151489,0.005361600098386407,0.4757885432451963
1724854959087266000,5.99426611328125,-0.7091910564064979,0.0013933540545403957,0.4179448415637016
1724854959097316900,6.00431689453125,-0.7307505617856979,-0.0039343437742441895,0.06020224750638008
1724854959107368700,6.01436865234375,-0.8000795340776443,0.04466090643815696,-0.31308629072904587
1724854959117420800,6.0244208984375,-0.6428618504524231,0.06411138377413153,-0.05869242746531963
1724854959127472600,6.03447265625,-0.08009002028107642,0.31024609886705873,0.5361895281940698
1724854959137524700,6.044524658203125,0.27696634507775303,0.5146987772021442,0.7007160735279321
1724854959147576800,6.054576904296875,-0.07250351067483425,0.42600116063877935,0.6593874533176421
1724854959157628700,6.064628662109375,-0.7626011595547199,0.0944726197682321,0.1873047788530588
1724854959167680800,6.0746806640625,-1.1010247206360102,-0.559360998814553,0.016506313642859458
1724854959177731800,6.08473193359375,-1.1450000559628009,-0.8567071379676461,0.45014556794464583
1724854959187783700,6.09478369140625,-1.3930711459457874,-0.5393680851649493,0.185178288218379
1724854959197835800,6.104835693359375,-0.9801198748856782,-0.2775871073246002,-0.366432680991292
1724854959207887600,6.1148876953125,-0.6091437052458525,-0.2860954079508781,-0.5064209973961115
1724854959217940000,6.12493994140625,-0.1743564499527216,-0.6040761927232146,0.05808686278760433
1724854959227991800,6.13499169921875,-0.07101414889991282,-0.5878612632423639,0.9039543345719575
1724854959238044000,6.1450439453125,-0.7207219197243452,0.17839615379758178,0.6985539270579815
1724854959248095700,6.155095703125,-0.9432809673100709,0.8785280707620083,-0.14698796603381634
1724854959258146800,6.165146728515625,-0.7418833656966686,1.031416858337447,-0.01426408767402172
1724854959268198700,6.17519873046875,-0.2657435247957706,0.9648357965141534,0.6760685390055179
1724854959278250800,6.185250732421875,-0.2366881107032299,0.6143148973386734,1.115685698673129
1724854959288302600,6.195302490234375,-0.36936172018051144,0.4158737343780696,0.884784939199686
1724854959298355000,6.20535498046875,-0.6498036324143409,0.4378125944636762,0.2673305017262697
1724854959308406800,6.21540673828125,-0.36574119159579277,0.14265212878659367,0.032247488132119174
1724854959318459000,6.225458984375,-0.27292729882001876,-0.24392281119711695,0.3636211307018995
1724854959328510700,6.2355107421875,-0.37923078776597974,-0.19753405805304644,0.5599047503024339
1724854959338561800,6.245561767578125,-0.5973772796064615,-0.14558876676037907,0.24421383003294467
1724854959348613600,6.255613525390625,-0.5939753622084856,-0.49294491829462345,-0.05110299524962902
1724854959358665700,6.265665771484375,-0.44022798504233357,-0.7686245114974677,0.13760989683568478
1724854959368717600,6.275717529296875,-0.34500410851538177,-0.7013286524683237,0.37403146555721756
1724854959378769700,6.285769775390625,-0.4897089320480823,-0.4201502426534891,0.3510422196358442
1724854959388821800,6.29582177734375,-0.68455053614676,-0.17777122683227062,0.4423837017714977
1724854959398873900,6.305873779296875,-0.7391191616803408,0.02451455579251051,0.3155085494399071
1724854959408925700,6.31592578125,-0.8688304142206906,-0.06257116859480738,0.13041677046120165
1724854959418976800,6.325976806640625,-0.9008598756879568,-0.3387092461548745,-0.11921791557669639
1724854959429028900,6.33602880859375,-0.76012044865489,-0.663114072625339,0.10356383484899997
1724854959439080700,6.346080810546875,-0.6450292576193809,-0.6297384572461248,0.3837456348419189
1724854959449132800,6.3561328125,-0.44681262412965295,-0.4692293308600783,0.3900456117689609
1724854959459184600,6.3661845703125,-0.4464005361974239,-0.4377217013098299,0.4129056783527136
1724854959469236700,6.37623681640625,-0.677461454668641,-0.38728915266767144,0.3281897518366575
1724854959479288800,6.386288818359375,-0.6813368347972631,-0.2837944375321269,0.4261667264640331
1724854959489340700,6.396340576171875,-0.5630950707763434,-0.004752162963151931,0.564837530529499
1724854959499391700,6.406391845703125,-0.5600847830444574,0.3392740404307842,0.4033692037224769
1724854959509443800,6.41644384765625,-0.723366881275177,0.34319472100585696,0.039592590197920795
1724854959519495700,6.42649560546875,-0.8889870670646428,-0.09006050241440534,0.15616203709244728
1724854959529547800,6.4365478515625,-0.5643260738760233,-0.6073766955733299,0.5664484728574752
1724854959539599600,6.446599609375,-0.2734334947764873,-0.7710323032915591,0.5822393317073583
1724854959549652000,6.45665185546875,-0.5091255801796913,-0.685730978102982,0.22618132973611355
1724854959559703800,6.466703857421875,-0.6388222196727991,-0.656652621526271,0.12673194446861744
1724854959569756000,6.476755859375,-1.007396004346013,-0.6007907413117587,0.08220657404363155
1724854959579806700,6.486806640625,-0.3725584703952074,-0.5148907195776701,0.10607727897465229
1724854959589858800,6.49685888671875,-0.296783975225687,-0.48361090743392704,0.2088929258048534
1724854959599910700,6.50691064453125,-0.5254828407406806,-0.18130685361251234,-0.0811234549820423
1724854959609962800,6.516962646484375,-0.2907996401190758,0.05443184741139412,-0.07381693136096
1724854959620014600,6.5270146484375,-0.3015156799226999,0.25666107754334805,-0.020109891092777252
1724854959630066700,6.537066650390625,-0.7124158636718988,0.25179361763745545,0.4056003237754106
1724854959640118800,6.547118896484375,-1.0302151543974876,0.3639657063558697,0.47477147515714163
1724854959650171000,6.5571708984375,-0.29824060377478595,0.5761810545817018,0.20655016207098958
1724854959660221700,6.5672216796875,0.04319792121350765,0.41933454235643147,-0.20999416504502294
1724854959670273800,6.577273681640625,-0.26220775188505646,-0.1988885414019227,0.2318207969278097
1724854959680325600,6.58732568359375,-0.1624310343593359,-0.6979287808969616,0.7735492545485496
1724854959690377700,6.597377685546875,0.010893149936199187,-0.7216670916199683,0.6753735424786805
1724854959700429600,6.6074296875,-0.04430851280391216,-0.5782116836264729,0.26415128716826436
1724854959710481700,6.617481689453125,-0.159754508626461,-0.4537891851440072,0.16162731676101683
1724854959720533800,6.62753369140625,-0.25342121883928775,-0.39656975284069773,-0.0016050971090793608
1724854959730585900,6.6375859375,0.319244228836894,-0.6009937165379524,0.017350363251566886
1724854959740637000,6.647636962890625,0.4862625909864902,-0.976722341401875,0.27205402311682697
1724854959750688800,6.657688720703125,0.35725919445455073,-1.2658052407309413,0.5817056632220745
1724854959760740900,6.667740966796875,0.08945581451952457,-1.4416492988929153,0.7856266458332538
1724854959770792700,6.677792724609375,-0.24420447768270967,-1.1605752262353897,0.8926800763636827
1724854959780844800,6.6878447265625,-0.4847743982553482,-0.613019962157309,0.7154243978381156
1724854959790896600,6.697896728515625,-0.1990647747516632,-0.5187848044067621,0.6841244196891785
1724854959800948700,6.70794873046875,-0.06896364611089228,-0.4883639471799135,0.8999556203246116
1724854959811000800,6.718000732421875,0.3090677027374506,-0.5173930577874183,1.2532272064477203
1724854959821052700,6.728052734375,0.7883277214854956,-0.7714651417508721,1.3636387152343987
1724854959831103700,6.738103759765625,0.2626443897366524,-0.8250354038968681,1.1058113703906536
1724854959841155800,6.74815576171875,-0.23397242200374602,-0.7781468114718795,0.8570832778036593
1724854959851207700,6.758207763671875,0.3102852618336677,-1.1502987468928099,0.8976789075642824
1724854959861259800,6.768259765625,-0.024585575202107426,-1.0722519228771328,0.7913765876621007
1724854959871311600,6.7783115234375,-0.3972136037021875,-0.542681228300929,0.48991351470947264
1724854959881363700,6.78836376953125,0.4076876514434814,-0.24148089793771504,0.3659089493781328
1724854959891415800,6.798415771484375,0.3081488343268633,-0.08633359084576368,0.4246399552881717
1724854959901467000,6.808466796875,-0.6531319000542164,0.2791562563374638,0.12410919474959373
1724854959911518700,6.818518798828125,0.2421820319443941,-0.01954962686151266,0.1153437044918537
1724854959921570800,6.82857080078125,0.17833236784636974,-0.46114890025705096,-0.12338088047504424
1724854959931622700,6.83862255859375,-0.8828969334959983,-0.527429298633337,-0.6322989553838968
1724854959941674800,6.8486748046875,0.053952539461851114,-0.7256418404698372,-0.7698936546504497
1724854959951726600,6.8587265625,0.5538596249192953,-0.8407517362058162,-0.6314648426473141
1724854959961778700,6.86877880859375,-0.1593897669672966,-0.5765267992794514,-0.5296972435653209
1724854959971830800,6.878830810546875,-0.7654974655181169,-0.15453414362967013,-0.5694418094545602
1724854959981883000,6.8888828125,0.6350614058345556,-0.3131856594502926,-0.1877747344523668
1724854959991933700,6.89893359375,0.7365849670276046,-0.6424187828600406,-0.2505214057445526
1724854960001985800,6.90898583984375,0.09614508302509785,-0.7143652441740036,-0.39415772326290605
1724854960012037600,6.91903759765625,-0.1270078388005495,-0.5912707794249057,-0.6463374176084995
1724854960022089700,6.92908984375,0.9606614334389567,-0.855614374294877,-0.6042378130257129
1724854960032141600,6.9391416015625,0.6324857101276516,-0.7746458176136016,-0.6323644218355416
1724854960042193700,6.949193603515625,0.4236743251264095,-0.7778864069700241,-0.5060299522519112
1724854960052245800,6.959245849609375,0.683041592888534,-1.1018611714601516,-0.12824760972857474
1724854960062297900,6.9692978515625,0.2959264816135168,-1.4099842868238686,0.11761164942383766
1724854960072349000,6.979348876953125,0.25707711099833247,-1.392014330369234,-0.15738018071055412
1724854960082400800,6.98940087890625,0.4713397471427917,-1.0775175883203745,-0.2806710448145866
1724854960092453400,6.999453369140625,0.3073170596778393,-0.6240513515204191,-0.5455448010385037
1724854960102505500,7.00950537109375,0.13791267917454242,0.12919862684309483,-0.5558978527486323
1724854960112557600,7.0195576171875,0.2439519642263651,0.990530794262886,-0.37171968148350715
1724854960122609700,7.029609619140625,0.39197307270020243,1.2592308307766913,0.0028939678758382794
1724854960132661500,7.03966162109375,0.38597938524335623,1.253332420387864,0.3053448828220367
1724854960142712600,7.049712646484375,0.6581836304858326,1.245894963863492,0.35666122856140137
1724854960152764700,7.0597646484375,0.6874544408947229,0.9557768762677907,0.5150672451883554
1724854960162816500,7.06981640625,0.7293260819405317,0.4635071538209915,0.7336088738262653
1724854960172868600,7.07986865234375,0.7967720169648528,0.043373277780413624,0.735606769645214
1724854960182920400,7.08992041015625,0.4130985705763101,-0.2156336322367191,0.722889326891303
1724854960192972500,7.09997265625,0.21708909174203872,-0.28240473673939703,0.40809623224437236
1724854960203024600,7.110024658203125,0.20339725099802017,-0.2774240257173776,-0.10899170511662959
1724854960213076500,7.120076416015625,0.18344167368412018,-0.255718389865756,-0.45105508400499816
1724854960223128600,7.130128662109375,0.26606851896643635,-0.04563187036216259,-0.5179617975860834
1724854960233179600,7.1401796875,0.3913637086302042,0.2970926027834415,-0.18834931946992872
1724854960243231500,7.1502314453125,0.4203542407929897,0.9284083923488855,0.2856388963550329
1724854960253283600,7.16028369140625,0.5163496862143278,1.3281973994970322,0.5322948588430881
1724854960263335400,7.17033544921875,0.5663900206685066,1.006006595814228,0.5189671752363443
1724854960273387500,7.180387451171875,0.45405251225531096,0.29132687886357306,0.3125046914488077
1724854960283439600,7.190439697265625,0.16467267580628395,-0.44471769767701624,0.18781857359409332
1724854960293491700,7.20049169921875,-0.333789471539855,-0.8196060723245143,0.028518238475918768
1724854960303543600,7.21054345703125,-0.210357737660408,-1.2975135074198245,-0.22530630046725272
1724854960313594600,7.2205947265625,-0.24516981558352707,-1.2990560606867074,-0.5793143841713666
1724854960323646500,7.230646484375,-0.3191208947181701,-1.0581471174180508,-0.8985410773515701
1724854960333698600,7.240698486328125,-0.1864803107276559,-0.6386386797994374,-0.7887269499361514
1724854960343750400,7.25075048828125,0.050696168014407156,0.09267185395658016,-0.39741701731979845
1724854960353802500,7.260802490234375,0.81124039503932,0.7863783409833908,0.5522042589277029
1724854960363854600,7.2708544921875,1.3446326937302946,1.4490964000284672,1.6352543469339609
1724854960373906700,7.28090673828125,1.6217355246692895,1.5835720904916524,2.1777830150216815
1724854960383958500,7.29095849609375,1.8471610676020382,0.7035656177401542,2.3700860405534505
1724854960394009600,7.301009521484375,1.350543963600695,-0.22604630517959592,2.216833753427863
1724854960404061400,7.3110615234375,1.0538809844061732,-1.3462579568445683,1.9622657026410102
1724854960414113500,7.321113525390625,-0.2112757292881608,-1.978909378927946,1.3137111935049295
1724854960424165400,7.331165283203125,-0.6908724326446652,-2.697269245696068,0.03697159404456615
1724854960434217500,7.341217529296875,-0.42819618646502494,-2.715105931159854,-0.940151437112689
1724854960444269300,7.351269287109375,-0.06788432644158601,-1.550053267249465,-1.2442542109191417
1724854960454321700,7.36132177734375,0.5031146493270993,-0.008110241219401359,-0.6840215438365936
1724854960464373500,7.37137353515625,0.8470356387808918,1.5855471899569034,0.4956126031339168
1724854960474424600,7.381424560546875,0.9606889059677719,2.199668683615327,1.4110089536964892
1724854960484476700,7.3914765625,1.0215335430309176,1.8117647600501774,1.4729624287843703
1724854960494528500,7.401528564453125,1.040628704123199,0.9819827461481094,0.5449953504621983
1724854960504580600,7.41158056640625,0.9129270378395915,-0.09125672646164894,-0.33302433238625523
1724854960514632400,7.421632568359375,0.4057759726032614,-0.8458499361276626,-1.1262065081655979
1724854960524684500,7.4316845703125,-0.20674042394608258,-1.2171890938609837,-1.8840595964103937
1724854960534736600,7.441736572265625,-0.11431026979088782,-1.3778110329717397,-2.0924685380905865
1724854960544788500,7.45178857421875,-0.25318653330057855,-0.9230167624384165,-1.5928899539351462
1724854960554839600,7.461839599609375,-0.3807958451256156,-0.26154607310593125,-0.9501596209079026
1724854960564891600,7.4718916015625,-0.5396034282907843,0.2598211490094662,-0.6334785205572843
1724854960574943500,7.481943603515625,-0.6960892905101179,0.4401356305837631,-0.11709434755146503
1724854960584995600,7.49199560546875,-0.8143550199285149,0.124214993211627,0.42960780682861804
1724854960595047400,7.50204736328125,-0.9623407648280262,-0.08319441603720187,0.9124275638848542
1724854960605099500,7.512099609375,-0.9313470761492848,-0.030582769790291786,1.2146312260717154
1724854960615151600,7.522151611328125,-0.6425722198560834,0.12416004815399646,0.9487626135915517
1724854960625203700,7.53220361328125,-0.559196017511189,-0.1238882454752922,0.631423926115036
1724854960635254500,7.542254638671875,-0.3319453049778938,0.11907646127939224,-0.29577216783463955
1724854960645306600,7.552306640625,-0.012950082466006279,0.14457389062941073,-0.6375310108184814
1724854960655358500,7.5623583984375,0.45277503966540095,0.26968203328847884,-0.6535749676465987
1724854960665410600,7.57241064453125,0.885993438206613,0.3979506858050823,-0.26544658767580986
1724854960675462400,7.58246240234375,1.0569032548367976,0.568338232126832,0.26615269011855125
1724854960685514500,7.592514404296875,0.7632268902376294,-0.23402269088625907,0.8454244041919707
1724854960695566600,7.602566650390625,0.0683776629164815,-0.6766881322085857,0.9048924922049045
1724854960705618700,7.61261865234375,-0.323938524132967,-0.690087712007761,0.6706909376204013
1724854960715669500,7.62266943359375,-0.5965878827944398,-1.146892737841606,0.5726216085344553
1724854960725721600,7.6327216796875,-0.4360337482228875,-0.72686758287251,0.2112210764914751
1724854960735773400,7.6427734375,-0.2553016257584095,0.1872656158864498,-0.15837269887924194
1724854960745825500,7.652825439453125,-0.41887335458546876,0.566059181278944,-0.2589303376495838
1724854960755877400,7.66287744140625,-0.7179682371020316,0.8592594527989625,-0.32759412403106686
1724854960765929500,7.672929443359375,-0.7936977240860462,1.0880004038900137,-0.21393734971284864
1724854960775981300,7.682981201171875,-0.6539440932199359,1.0068483073353767,0.10260931060314178
1724854960786033700,7.69303369140625,-0.412190515820682,1.2053688922077417,0.40879356685876844
1724854960796084700,7.703084716796875,-0.3090346772506833,1.2154121473163366,0.5634066209435462
1724854960806136600,7.713136474609375,-0.13882950175851583,1.0687123505741358,0.3722872522383928
1724854960816188700,7.723188720703125,0.06699146925508975,0.8187351347088814,-0.1442529881119728
1724854960826240500,7.733240478515625,0.36933570895642037,0.7522843482017517,-0.6387701972246169
1724854960836292600,7.743292724609375,0.5950558509215712,0.9075257633179425,-0.8786246630042791
1724854960846344400,7.753344482421875,0.5602744603976607,1.1186515627413987,-0.932717487719655
1724854960856396500,7.763396484375,0.3571753155633807,1.1726286521226168,-0.8239309497863054
1724854960866448600,7.77344873046875,0.09856325008273124,1.0085346529871224,-0.6029980420976877
1724854960876499700,7.783499755859375,-0.200790283370018,0.7403373052984475,-0.3299070771485567
1724854960886551600,7.793551513671875,-0.41578824805170295,0.5157283394455909,-0.08113280733227729
1724854960896603600,7.803603759765625,-0.45408992165625095,0.38195816690325735,0.024721184280514716
1724854960906655500,7.813655517578125,-0.30291940924078226,0.3035065614789724,-0.03814297591149807
1724854960916707600,7.82370751953125,-0.07001666229516268,0.2207856081724167,-0.13993220230340958
1724854960926759400,7.833759521484375,0.1288669106706977,0.08771393928825855,-0.11402034693360329
1724854960936811500,7.8438115234375,0.3232750917881727,-0.02840659479498863,0.10225567485988139
1724854960946863600,7.853863525390625,0.557032409736514,-0.12202128255963325,0.3937690162062645
1724854960956914400,7.86391455078125,0.6473173685565591,-0.15682371587157248,0.4801981763809919
1724854960966966500,7.873966552734375,0.26480098324865103,-0.30220190862119195,0.2142453927487135
1724854960977018600,7.8840185546875,-0.10182663579285144,-0.42819151028990743,0.007866495591402053
1724854960987070500,7.894070556640625,-0.3532902908235788,-0.3850631471812725,-0.06359072090089321
1724854960997122600,7.90412255859375,-0.3219233849182725,-0.25806232264339923,0.15959142701923845
1724854961007174400,7.91417431640625,-0.2652694775432348,-0.4593319139629602,0.33064182116389274
1724854961017226500,7.9242265625,-0.46835196350365876,-0.7829711628884076,0.32237843520939347
1724854961027277600,7.934277587890625,-0.7320300802022218,-0.7113356672197579,0.1868383303850889
1724854961037329400,7.944329345703125,-0.4117892415434122,-1.004896588745713,0.3281640328735113
1724854961047381800,7.9543818359375,-0.5904375434711575,-0.996616251656413,0.3451911555200815
1724854961057433600,7.96443359375,-0.4989858789592981,-0.9784329447120428,0.5599859988451004
1724854961067485700,7.974485595703125,-0.20064970585554837,-0.8858797486990689,0.6126116736173629
1724854961077537500,7.98453759765625,-0.19986586200147866,-0.5530769501090049,0.761879275020957
1724854961087589400,7.99458935546875,-0.3227051829457283,-0.25092706393599506,0.9071610216587781
1724854961097641000,8.004640869140625,-0.2039016933888197,0.20964754356443882,1.0476631328046322
1724854961107692000,8.014692138671874,-0.4055068002730608,-0.031388240954279896,1.0813047056436538
1724854961117743900,8.024743896484376,-0.6075456223994493,-0.18223814311325548,1.2094108610749243
1724854961127796000,8.0347958984375,-0.06481675556451082,-0.032063363736867904,1.3455752352774142
1724854961137847800,8.044847900390625,0.14612521172463894,-0.1885340283870697,1.0885434247255326
1724854961147900200,8.054900146484375,-0.12720540719926357,-0.38134032726585865,0.8596013981044291
1724854961157952000,8.064951904296874,-0.11893763733059168,-0.403048301205039,0.6825912187725305
1724854961168004000,8.075004150390624,-0.05224690458774566,-0.17202713022232055,0.6433809058904647
1724854961178056000,8.085055908203126,-0.18627075963020323,-0.21672902625799179,0.37936522780060766
1724854961188107000,8.09510693359375,0.007767126870155334,-0.23947744916081426,0.22308044111132622
1724854961198159000,8.1051591796875,-0.061387073376774785,-0.20974925037324427,-0.04015314669013023
1724854961208211000,8.1152109375,0.0842997469305992,-0.2940080807715654,-0.06606032588481903
1724854961218262800,8.1252626953125,0.2578083478823304,-0.20487959851026533,0.15523556989729403
1724854961228315000,8.13531494140625,0.13635668190419672,-0.3566688273459673,0.21799334710538387
1724854961238367000,8.145366943359376,-0.011066752937436104,-0.3937508960276842,0.40279812583625313
1724854961248419000,8.155419189453125,-0.07192249591648578,-0.38459845227897166,0.6002367606908082
1724854961258470100,8.16547021484375,0.15551263327300546,-0.17637655760347842,1.0183774170875548
1724854961268522000,8.17552197265625,0.14899287611544132,-0.07817629561424255,1.2713199124991894
1724854961278574000,8.185573974609374,-0.06991174061596393,-0.1297007311463356,1.386516317474842
1724854961288626000,8.1956259765625,-0.07046937449872494,-0.04047989442646503,1.8037778529494999
1724854961298678000,8.205677978515626,-0.4247510144472122,-0.10413491273522377,1.5717863756299018
1724854961308729900,8.215729736328125,-0.9277338540881872,-0.36959845154583454,0.9636854574352502
1724854961318782200,8.2257822265625,-1.1302157438069582,-0.6473679297000169,0.6778033999741077
1724854961328834000,8.235833984375,-1.3733324262529611,-0.6931412543594837,0.36609482733905313
1724854961338885000,8.245885009765624,-1.400449565759301,-0.6140636259913445,0.31252339614927765
1724854961348937000,8.25593701171875,-1.2930226257413624,-0.34251462978720665,0.29352877282202244
1724854961358989000,8.265989013671875,-1.0577011272162198,0.1315261930078268,0.6050578972369433
1724854961369041000,8.276041015625,-0.871549025529623,0.4331114310353994,0.6033727206289767
1724854961379093000,8.286093017578125,-0.7196715338885784,0.4840259179756045,0.3262777807354927
1724854961389144800,8.296144775390625,-0.28281331754028793,0.5250751367226243,0.5500047030568123
1724854961399197200,8.306197265625,-0.077925535723567,0.5917249529331923,0.5945201366096735
1724854961409248000,8.316248046875,-0.12390110495686531,0.4281596538469195,0.2588818223327398
1724854961419300000,8.326300048828125,-0.11446224548220633,0.6154051037281751,-0.2093827551484108
1724854961429352000,8.33635205078125,-0.06377952147126198,0.7234729719981551,-0.21977263173758982
1724854961439404000,8.346404052734375,-0.21623861239254474,1.3441399417772888,-0.07428980956971645
1724854961449455900,8.356455810546874,-0.1648568002015352,1.589307711534202,0.2126151611983776
1724854961459508000,8.366508056640624,-0.03491816864609718,1.6910162739053367,0.7430676070451736
1724854961469559800,8.376559814453126,-0.15698738200068474,1.173024957963824,0.6971779625296592
1724854961479612200,8.386612060546875,-0.07081833406686783,0.6023132747039198,0.8013017693489789
1724854961489663000,8.3966630859375,-0.28533611401617526,0.44311318508982656,1.0458902779132127
1724854961499715000,8.406715087890625,-0.504922283270955,0.23112053970396518,0.5582487997889518
1724854961509767200,8.41676708984375,-0.3086398327142,0.304217924618721,-0.11737725614607333
1724854961519819000,8.426819091796874,-0.10955050804316997,0.5803127475589513,-0.6317880832523107
1724854961529871000,8.43687109375,-0.0317757789671421,0.5712123262584209,-0.5836486139833926
1724854961539923000,8.4469228515625,-0.08226911788582801,0.5944213524103165,-0.7372194655388593
1724854961549975000,8.45697509765625,-0.052070963498950004,0.632606413897872,-0.7122142036199569
1724854961560025900,8.46702587890625,0.30433307543098925,0.2214770975679159,-0.549212675896287
1724854961570078000,8.477077880859374,-0.2999608516961336,0.59569239525944,-0.38291210662722586
1724854961580130000,8.487130126953126,-0.49075931788384913,0.182972010345757,-0.4642909976750612
1724854961590182100,8.49718212890625,-0.2934644754141569,0.5264253822878003,-0.6413707351118326
1724854961600234000,8.50723388671875,-0.22274901719987392,0.643848523402214,-0.00438449869453907
1724854961610286000,8.5172861328125,0.29804478894174097,0.20356237843185662,0.9846341374397277
1724854961620338000,8.527337890625,-0.07341419577896595,-0.044782267795503136,1.3676830221891403
1724854961630389000,8.537388916015624,-0.40047523584663863,0.3189303405821323,1.0585796636164189
1724854961640440800,8.54744091796875,0.23887363804876802,1.1545429603338242,0.9441074812620878
1724854961650493000,8.557492919921875,-0.707950700956583,0.7066437100112438,1.3850538437068463
1724854961660545000,8.567544921875,-1.3418255273550748,0.08985591975301503,1.5774825414448976
1724854961670597000,8.57759716796875,-1.9283271926820278,0.05378828881084919,1.3353788354337215
1724854961680649000,8.58764892578125,-1.5802917536467314,-0.4887231358811259,1.44728204408288
1724854961690701000,8.597701171875,-0.9072083679318428,0.1581765917852521,1.15680739813447
1724854961700752100,8.607752197265626,-0.6048872168451547,0.7272843469798564,0.3499380577862263
1724854961710804000,8.617803955078125,-1.8073627256989477,0.39839945248588915,0.5270055202633143
1724854961720856000,8.62785595703125,-2.223939786040783,-0.9170239517644048,1.0014233596771955
1724854961730908000,8.637907958984375,-2.2033558476954695,-1.3118696572914719,0.20087387000024318
1724854961740960000,8.6479599609375,-1.6011071626603604,-0.9315601343780755,-0.4723416176617145
1724854961751012000,8.65801220703125,-1.3444880245625972,-0.45326852227076886,-0.7810217823863029
1724854961761064000,8.66806396484375,-2.296708085131645,-0.42062063664421434,-0.9875210910528898
1724854961771115000,8.678114990234375,-2.6499475225508213,-1.1866453409068285,-0.8655413095474243
1724854961781167000,8.6881669921875,-2.624102302676439,-1.0764828384451568,-0.9808119488030671
1724854961791219000,8.698218994140625,-2.1485902382850646,-0.632982115342468,-0.9535194527298212
1724854961801271000,8.70827099609375,-2.2428753726571795,-0.6653896163418889,-0.6907184111267328
1724854961811323000,8.718322998046874,-2.7315900329709053,-0.8109023952566087,-0.5538046798616647
1724854961821375000,8.728375,-2.533174077516794,-0.6953614146269858,-0.5790145244419574
1724854961831427000,8.738427001953125,-1.7308488103389739,-0.40319779267832634,-0.6347568699300289
1724854961841478100,8.74847802734375,-0.9948504110276698,-0.23939912322759627,-0.4499690423339605
1724854961851530000,8.758530029296875,-0.8902017035514116,-0.9342276000216603,0.35825229714512824
1724854961861582000,8.76858203125,-0.92974285582304,-0.1689268261194229,-0.2517898182451725
1724854961871634000,8.778634033203126,-0.22620295704603194,0.5670940772846341,0.27280279565751553
1724854961881686000,8.78868603515625,-0.3312742738485336,0.7216869653642177,0.5638911895900964
1724854961891737900,8.79873779296875,-0.31782208707928655,0.5926286237746476,0.34718495968580243
1724854961901789000,8.808788818359375,0.2860883936882019,0.5413206074722111,0.5369307019501924
1724854961911841000,8.818841064453125,-0.08715922801494598,-0.5652386586762964,1.4341390693932772
1724854961921892900,8.828892822265624,-0.5077145443379879,0.016636515893787146,1.3275292909771204
1724854961931945000,8.838945068359376,0.26696283745765687,0.5919488248169422,1.8882728301912546
1724854961941997000,8.8489970703125,0.9564578442692756,0.7539530120663345,1.741421642279625
1724854961952049000,8.859048828125,1.730861669820547,0.7703564498566091,1.8022417294234037
1724854961962101000,8.86910107421875,2.006011905387044,0.9325852396421134,1.1738321826934814
1724854961972152000,8.879152099609374,0.22568390160799026,2.4726813226312396,0.23889760344624517
1724854961982204000,8.889203857421874,1.175466505897045,1.5110985365636647,1.3240186525076627
1724854961992256000,8.899256103515626,-0.521257916522026,0.030263182447105644,1.0726304008007048
1724854962002307800,8.909307861328125,-1.3263181616216897,0.24773133663460611,0.19938859987854957
1724854962012360200,8.919360107421875,-1.7342711860030888,-0.05619798030108213,-1.0394359872072934
1724854962022412000,8.929412109375,-1.8311866688787937,-0.7195936463467776,-1.8767811298400163
1724854962032464100,8.939464111328125,-1.3376760064601898,-0.5258747626677155,-1.5676035369873047
1724854962042515000,8.949514892578126,-1.0429518863737584,0.24715529031231998,-0.9279881211102008
1724854962052567000,8.959567138671876,-0.569179359126091,0.7207846096970141,-0.7467769829571247
1724854962062619000,8.969618896484375,-0.2795832495778799,0.23063903979733585,-0.22179916912913322
1724854962072671000,8.9796708984375,-0.3770154498040676,-0.5486296153113246,0.14083119696974752
1724854962082722800,8.989722900390625,-0.78686466319561,-0.975001947350055,-0.05629764128327369
1724854962092775400,8.999775390625,-1.1527981624931096,-0.9911486339002847,-0.2946487167626619
1724854962102826200,9.009826171875,-1.0388368522703646,-0.679364804071933,-0.39733752234280106
1724854962112878300,9.01987841796875,-1.1175707817673683,-0.505228280480206,-0.4067418950259685
1724854962122930400,9.029930419921875,-1.1888806987434626,-0.6302398308970034,-0.9810656313031911
1724854962132982500,9.039982421875,-1.2668138332515955,-0.7382258661024272,-1.3457049991369248
1724854962143034400,9.050034423828125,-1.2302502354860305,-0.5635784703791141,-1.1209253528922796
1724854962153086500,9.06008642578125,-1.1325164219647645,-0.1349307407543063,-0.7066881336748599
1724854962163138300,9.07013818359375,-0.8346393908053636,0.11301336184814571,-0.5128296953946352
1724854962173189400,9.080189453125,-0.13824585665166378,0.016105770017951725,-0.26680677011311055
1724854962183241500,9.090241455078125,0.07509118908047675,-0.3371319138355553,0.20883096648454666
1724854962193293300,9.100293212890625,0.22518413539230822,-0.4375410840459168,0.6048492229223251
1724854962203345400,9.110345458984375,0.33514673136770723,-0.3566723344773054,0.6488923627883195
1724854962213397500,9.1203974609375,0.21485212647020815,-0.39093554634600874,0.27592881872355934
1724854962223449300,9.130449462890626,0.012118892338871956,-0.637992490850389,0.011836568266153334
1724854962233500400,9.14050048828125,-0.141617378911376,-0.846553262091428,0.07735738044679165
1724854962243552500,9.150552490234375,-0.5801689551740884,-0.9596920038849115,0.1846773529589176
1724854962253604400,9.160604248046875,-0.45243747827410696,-0.9498971705794333,0.2893336592197418
1724854962263656400,9.170656494140625,-0.18511866698563098,-0.9803136438921093,0.7003963400542735
1724854962273708300,9.180708251953124,-0.49707040072679515,-0.7625880078122019,1.1935744095176457
1724854962283760400,9.190760498046876,-0.880792070171237,-0.10832593468427658,1.2225234406262635
1724854962293812500,9.2008125,-0.8437626084595918,0.543981204983592,0.9788000244587659
1724854962303863600,9.210863525390625,-0.463190927478671,0.7108259641319513,0.7836129679232835
1724854962313915400,9.220915283203125,-0.015683306822180748,0.339992417833209,1.0746861642867327
1724854962323967500,9.230967529296874,-0.6472977870732546,0.021943243999779222,1.3587328230142592
1724854962334019300,9.241019287109374,-1.504998319992423,0.06631283934116364,1.0823024845093487
1724854962344071400,9.251071533203126,-1.6581331182181833,0.11362374883145093,-0.05056698867678642
1724854962354123300,9.261123291015625,-1.711411703941226,-0.25069997718185183,-1.3522048825502395
1724854962364175400,9.27117529296875,-1.969828831371665,-0.9268784063026309,-2.0321336041152476
1724854962374226400,9.281226318359375,-2.0500936236977574,-1.580048008018732,-2.275805582356453
1724854962384278300,9.2912783203125,-1.8497008152127266,-1.8256950857251881,-2.4195810160845515
1724854962394330600,9.30133056640625,-1.9099913255244492,-1.6811165189206598,-2.6824580455332994
1724854962404382500,9.311382568359376,-1.5454063182264566,-1.9157015198647975,-2.751152227053046
1724854962414434600,9.3214345703125,-2.3590116888314485,-1.9309893976286052,-2.797936190059781
1724854962424486400,9.331486328125,-1.9917326201438903,-2.1637153267025946,-2.5456670638650656
1724854962434537500,9.341537353515625,-1.5889257264792918,-2.4037732060998676,-2.4014701898545026
1724854962444589300,9.35158935546875,-1.9683786325633525,-2.1023256229773164,-2.323876078042388
1724854962454641400,9.361641357421876,-0.9207827197760343,-2.2396438433900476,-1.8141963711112736
1724854962464693200,9.371693359375,-0.8695821093708276,-1.8578399902656673,-1.142692948064208
1724854962474745600,9.38174560546875,-0.3751905724644661,-1.2238172798290847,-0.2426385435402393
1724854962484797400,9.39179736328125,0.16002455773949623,-0.6647118632107972,0.4535737888276577
1724854962494848500,9.4018486328125,0.6666483842313289,-0.514786382420361,0.857431068328023
1724854962504900400,9.411900390625,0.6798328599750996,-0.25873744542598726,0.9229366829395294
1724854962514952400,9.421952392578126,2.214063996453583,-0.5754752443999052,1.9185691842555999
1724854962525004300,9.43200439453125,3.4048248098552225,-0.6154279000818729,3.6227170346736908
1724854962535056400,9.442056396484375,2.753183440619707,0.7964566674053668,5.236343487167358
1724854962545108200,9.452108154296875,1.8308812561914323,2.6639152576267717,5.0906537442505355
1724854962555160600,9.46216064453125,2.0306547637343404,3.46480844617486,3.9850428648680447
1724854962565211400,9.47221142578125,2.1064345196008682,3.9533950961947437,3.898545315632224
1724854962575263500,9.482263427734376,2.030536690312624,4.777598433181643,4.870484222149849
1724854962585315600,9.492315673828125,1.9607652349501847,5.243816015005112,5.823346087753772
1724854962595367400,9.502367431640625,1.447602946600318,4.539438496360183,5.170817998811602
1724854962605419500,9.51241943359375,1.4036384249284863,2.457570262739062,4.006567298933863
1724854962615471400,9.522471435546874,0.35643735667765136,0.5178735347807407,2.4546838936477897
1724854962625522400,9.5325224609375,-0.39992315492182967,-1.040082468417287,1.2572358575671911
1724854962635574300,9.54257421875,-1.014798097296059,-1.7779811483919619,0.20655016207098958
1724854962645626400,9.55262646484375,-0.6757815387576818,-2.480069679316878,-0.2862964834809303
1724854962655678500,9.562678466796875,-0.705651191842556,-2.771076240184903,-0.49818040779531
1724854962665730600,9.57273046875,-0.7359025377213955,-2.4406781646490097,-0.7529910351663828
1724854962675782400,9.582782470703124,-1.3419874399185179,-1.279550565227866,-1.034503791502118
1724854962685833500,9.59283349609375,-0.19370646258890628,-0.5266641594797372,-1.187809270119667
1724854962695885300,9.60288525390625,-0.07842413289546966,0.4897931032001972,-1.4362538695901632
1724854962705937400,9.6129375,0.18293810807615518,0.9623305356949567,-1.663628208503127
1724854962715989200,9.6229892578125,0.6629401773631572,0.9019622839719057,-1.588895915862918
1724854962726041300,9.633041259765625,0.5852946276247502,0.6295008490979671,-1.4516355631172657
1724854962736093400,9.643093505859374,0.6380681864351033,-0.2262128939181566,-1.5460036995977162
1724854962746145500,9.6531455078125,0.3937079336687922,-0.6164414610385894,-1.1076444310367106
1724854962756196600,9.663196533203125,0.31749329351633787,-1.1011007084816693,-0.49840837133228777
1724854962766248400,9.67324853515625,0.3533618947550654,-1.8408920703351497,-0.3116431061834097
1724854962776300500,9.683300537109375,0.06340308937430382,-2.0369898119747636,0.057336336681246755
1724854962786352400,9.693352294921874,-0.232083247256279,-2.049077724653482,0.2005634888768196
1724854962796404500,9.703404541015624,-0.09292641323953867,-1.6322089878886936,0.42970133033096786
1724854962806456300,9.713456298828126,0.174676475687325,-1.204618366101384,0.3250853560805321
1724854962816507400,9.72350732421875,0.17853432015925644,-0.3836252233326435,0.29514965202212334
1724854962826559200,9.733559326171875,0.08175824575424194,0.17787760981619358,0.23031916019320486
1724854962836611600,9.743611572265625,0.1541620954468846,0.5346130726575851,0.7546586761176586
1724854962846663400,9.753663330078124,0.38167818091809746,0.7984463799178599,1.3430530233234166
1724854962856715500,9.763715576171874,0.5920785886764526,0.5720949543118476,2.3444272831618784
1724854962866767400,9.773767333984376,0.23652210648655891,0.45293899805545806,3.1552649426192043
1724854962876818400,9.783818359375,-0.052337505480647084,0.3754565299242735,3.3394939672887323
1724854962886870300,9.793870361328125,-0.08280717028528452,0.3229237941324711,2.9084155033856627
1724854962896922400,9.80392236328125,0.3871411224991083,0.28178046736121176,2.195209366118908
1724854962906974200,9.81397412109375,0.803107065205276,0.36636838358342644,1.2153531106054782
1724854962917026600,9.824026611328126,0.13822393708080052,0.4360428083121776,0.3883253638476133
1724854962927078400,9.834078369140625,-1.0153490091770887,0.4104764053791761,0.05988835925161838
1724854962937129500,9.84412939453125,-1.0463424055948853,0.45508185530304907,0.0993663831591606
1724854962947181600,9.854181640625,-0.9403951827406882,0.4876829791784286,0.16106500670313834
1724854962957233400,9.8642333984375,-1.0954200324967502,1.1872346851021052,0.5008873286664486
1724854962967285500,9.874285400390624,-1.4298954404741524,1.42079852630496,0.41343934683799743
1724854962977337300,9.88433740234375,-1.3582646209806204,1.0303291361659765,0.016017653343081473
1724854962987389400,9.894389404296875,-0.9852645442977547,0.5017617734134197,-0.22407646641135215
1724854962997440300,9.904440185546875,-0.4767214401811361,0.2065145062357187,-0.2210363680630922
1724854963007492400,9.914492431640625,0.14418226096332074,0.14264730648100377,-0.19746026216447352
1724854963017544400,9.92454443359375,1.0796946400985121,0.33479835632145405,-0.23204466881155966
1724854963027596500,9.934596435546876,0.8962561812847852,0.5726438203662634,-0.3538730591475963
1724854963037648400,9.9446484375,-0.0028059973314404486,0.2938771478682756,-0.588508328974247
1724854963047700500,9.954700439453125,-0.9132640147089958,0.08587094177007674,-0.8549316527277231
1724854963057752300,9.96475244140625,-0.9745119718760251,0.2195376539379358,-0.9399328259259462
1724854963067803400,9.974803466796875,-0.7555868968784809,0.5228589219778775,-0.9828530992418527
1724854963077855200,9.984855224609374,-0.8060290901318192,0.6727993080765009,-1.0957646081507206
1724854963087907300,9.9949072265625,-0.9436340185314417,0.5227379259467124,-0.9661299279779195
1724854963097962800,10.004962646484374,-0.9347200597137212,0.1782774227887392,-0.809705440557003
1724854963108014800,10.015014892578124,-0.6786690768927335,-0.16211130088567732,-0.7608037547439336
1724854963118066000,10.02506591796875,-0.08526450030952691,-0.19169044659137724,-0.6896797157287597
1724854963128117800,10.03511767578125,0.48683542243838307,0.07036474508047104,-0.5065870016127825
1724854963138169900,10.045169921875,1.0919354052513837,0.640327363538742,-0.2313023260116577
1724854963148222000,10.055221923828125,1.1857736726388335,1.0537363152384758,0.09260580298304558
1724854963158274000,10.065274169921874,0.9028826136872172,1.2624790189176798,0.3183697840899229
1724854963168326000,10.075325927734376,0.7184364391356706,1.14278237991333,0.3713713064372539
1724854963178377000,10.085376953125,0.5338002949699759,0.8241583288013935,0.18282792569994927
1724854963188428800,10.0954287109375,0.41263562923967834,0.6873936506181955,-0.04130523933470249
1724854963198481000,10.10548095703125,0.2042097364246845,0.4483732975751161,-0.19079729714393615
1724854963208532700,10.11553271484375,0.35744156528413296,0.1165904896825552,-0.278227158793807
1724854963218584800,10.125584716796874,0.6052683251172304,0.013657938474416731,0.02008651021718979
1724854963228637000,10.135636962890626,0.05607727653086185,-0.24300211615562436,0.6429325776010751
1724854963238687700,10.145687744140625,-0.5940969427615403,-0.7441676772415637,1.2665046211719513
1724854963248739800,10.15573974609375,-0.5391384411275386,-1.2416712086886166,1.8835212517499922
1724854963258792000,10.1657919921875,-0.24134382755458353,-0.9637345572739839,2.234716031599045
1724854963268843800,10.17584375,-0.4414925981506705,-1.514603183683753,2.484324414151907
1724854963278895900,10.185895751953124,-0.5247539419442415,-0.8814777143478393,2.2959061210989953
1724854963288947700,10.19594775390625,-0.46442777579724787,0.22579788337647913,1.866053984120488
1724854963298998800,10.205998779296875,-0.3718476917773485,0.15543898351490495,1.8199743699908255
1724854963309051000,10.21605078125,-0.4571463866174221,-0.4727390925467014,1.480188288384676
1724854963319102700,10.226102783203125,-0.7022907754987477,-0.8251239589631557,0.7496341259539127
1724854963329155000,10.236155029296874,-0.8747849387109279,-0.8797790937364101,-0.02601414670050144
1724854963339207000,10.24620703125,-0.9093155693441629,-0.9696037415683268,-0.7213368367522954
1724854963349259000,10.256259033203126,-0.6147708974778652,-0.42102059574723244,-0.6320972953319549
1724854963359309800,10.266309814453125,-0.5383218640476465,-0.3169844672113657,-0.398568525442481
1724854963369362000,10.27636181640625,-0.4088163632124662,-0.07977963915765285,0.12471592847108841
1724854963379413800,10.286413818359375,-0.14808978979587553,0.31416940979063507,0.8351923485130072
1724854963389465900,10.2964658203125,-0.18654606944024563,0.11810264781117438,0.998345267406106
1724854963399517700,10.306517578125,-0.41081425903141494,-0.2702005042046308,0.8542717275142669
1724854963409570000,10.316570068359376,-0.6215817465364932,-0.5270516974925995,0.3581196106761694
1724854963419620900,10.326620849609375,-0.4800613982588052,-0.37609307426214217,-0.06829495306909084
1724854963429673000,10.3366728515625,-0.4799924246758222,-0.5183101726323366,-0.7355214294493198
1724854963439724800,10.346724853515624,-0.25830431470572945,-0.6244008956104516,-1.0791694471806288
1724854963449777000,10.35677685546875,0.133400170186162,0.08497194710373877,-0.4540209480732679
1724854963459828700,10.366828857421876,0.04394903184175491,0.4909001876592636,0.23900749356150625
1724854963469879800,10.3768798828125,-0.1481368438079953,0.2440168461561203,0.7092208670228719
1724854963479932000,10.386931884765625,0.05328793807327747,0.34117139848470684,1.66164551025331
1724854963489983700,10.396983642578125,0.6457534802407026,0.44545887143313884,2.258658048200607
1724854963500035800,10.407035888671874,0.8715735754489898,0.05634148042500019,1.8923849416851997
1724854963510088000,10.417087890625,1.2544596708521245,0.4748568153530359,2.5228333007663486
1724854963520140000,10.42714013671875,1.1903911033064127,1.1906009466648102,2.7046827368229627
1724854963530190800,10.43719091796875,0.33484920972585674,1.4593173497915266,1.6578385191857814
1724854963540243000,10.447242919921875,-0.09925941565334796,1.2445853425696491,0.901280731448531
1724854963550294800,10.457294677734374,-0.19514847809076308,0.8523720313727855,0.12647124770581722
1724854963560347000,10.467346923828124,-0.21741817756593226,0.44943537384867666,-0.220296363350749
1724854963570398700,10.477398681640626,-0.30675942579507826,0.5099021175101399,-0.3880740194350481
1724854963580450800,10.487450927734375,-0.1588181045591831,0.5256467991307378,-0.800346660581231
1724854963590502000,10.497501953125,-0.012523966008424758,0.5590127698987722,-1.086289508318901
1724854963600554000,10.507553955078125,-0.047853638064861294,0.908408975893259,-0.6212175893992186
1724854963610606000,10.517606201171875,-0.1986684689104557,0.9149129509598016,-0.717380208081007
1724854963620658000,10.527657958984374,-0.34490473979413505,1.1318769550174475,-0.6003630174189806
1724854963630709800,10.537709716796876,-0.17266835073530673,1.0361942288070916,-0.15000994420349598
1724854963640760800,10.5477607421875,-0.6450134755283594,1.348751819486916,0.034434769043326374
1724854963650813000,10.55781298828125,-0.8182716088503599,1.3408090437889097,-0.15141104317307472
1724854963660864800,10.56786474609375,-0.6437158369332552,1.405936472737789,-0.2866542108774185
1724854963670916900,10.577916748046874,-0.30045360364913937,0.988408395281434,-0.1870394059151411
1724854963680968700,10.58796875,-0.4241179772406816,0.7786798954352736,-0.20117080712020396
1724854963691021000,10.59802099609375,-0.830278272986412,0.46387890974283214,-0.5629664759606122
1724854963701072000,10.60807177734375,-0.9369950189083814,0.5914440901651978,-0.6447656382471323
1724854963711124000,10.6181240234375,-1.000739469066262,0.7509396555945277,0.19015607663094997
1724854963721175800,10.62817578125,-0.6843500451385974,0.6146268128320574,0.10068915619552135
1724854963731228000,10.638227783203124,-0.2668862650901079,0.9510925178438424,0.05217910004854202
1724854963741279700,10.64827978515625,-0.38688977808654307,0.4647270510047674,0.019443536138534546
1724854963751330800,10.658330810546875,-1.1321551874369382,0.015036241090297699,0.26752164038419723
1724854963761383000,10.6683828125,-1.213712357661128,0.1739205427534878,0.508247628301382
1724854963771434800,10.678434814453125,-1.3415011177062988,0.9422695983104408,-0.10921908413171767
1724854963781487000,10.688487060546874,-1.2281442031174898,1.2625196431890129,0.353316009786725
1724854963791539000,10.6985390625,-1.5590841304451226,0.36567353318706153,0.5646498990029096
1724854963801591000,10.708591064453126,-1.2007687049359081,0.296733706343174,0.6362456471830606
1724854963811641900,10.718641845703125,-1.4950275455981492,-0.4984709151744842,0.2718517785429954
1724854963821694000,10.72869384765625,-0.7920984721958637,-0.4669648930594325,-0.12538052985966205
1724854963831745800,10.738745849609375,0.013995792126655578,-0.6914169147849083,0.5416431174248456
1724854963841798000,10.7487978515625,-1.7481132488727569,-1.0450058962941169,0.6077081194847822
1724854963851849700,10.758849609375,-2.3532097245544192,-1.0311816613420843,-0.7261497899919748
1724854963861900800,10.76890087890625,-1.2177847216665745,-1.0021979973115027,-0.18260113120675087
1724854963871953000,10.778952880859375,-2.5399732361376284,-1.8348738329589367,-1.0452151551306248
1724854963882005000,10.7890048828125,-2.450965165385604,-2.45996212631166,-1.1530027451545
1724854963892056800,10.799056884765625,-1.412159877297282,-1.5650008071430026,-0.32586510828137394
1724854963902109000,10.80910888671875,-1.4933470451653004,-1.4722662632137535,0.7682067244768143
1724854963912160800,10.819160888671876,-0.5263759901881218,-0.037461715649068354,1.6689046876013278
1724854963922211800,10.8292119140625,-0.8464362115830183,-0.10628485731072723,1.9059715684890746
1724854963932264000,10.839263916015625,-0.8611188169300555,-0.5955509409621358,0.49967210765779013
1724854963942315800,10.849315673828125,-0.44094811601042744,-0.6907712372925132,0.332950098106265
1724854963952367900,10.859367919921874,-0.511569466200471,-0.5328190288476645,0.16041501836180685
1724854963962420000,10.869419921875,-0.7711749266326428,-0.3340294908408075,-0.028118425503373144
1724854963972470800,10.879470703125,-1.3172726853787897,-0.40492410501427945,-0.2755763520240784
1724854963982523000,10.88952294921875,-1.7859844221055508,-0.35568778041936455,-0.7288157943308353
1724854963992575000,10.899574951171875,-2.0560861421108245,0.026147856082767245,-1.3368337104171513
1724854964002626800,10.909626708984375,-1.7728700889885425,0.4056570223987102,-1.4241197796821594
1724854964012679000,10.919678955078124,-1.0273954208016396,0.5370552051126957,-1.0868050566256047
1724854964022730000,10.92972998046875,-0.5519955846130847,0.5283717671152204,-0.9295832813471555
1724854964032781800,10.93978173828125,-0.2806932566463947,0.42396578235365445,-0.6135568455129862
1724854964042834000,10.949833984375,-0.11986322774291037,0.2724612156782299,-0.16773557050824164
1724854964052885800,10.9598857421875,-0.24938217258155346,0.0426433560706675,-0.18315408891439436
1724854964062937900,10.969937744140625,-0.6259773511469364,-0.07430829507447778,-0.5457996525824069
1724854964072990000,10.979989990234374,-0.7354466106474399,-0.1280183310173452,-1.0428326439082622
1724854964083041000,10.990041015625,-0.7808791590452194,-0.23057350028045473,-0.9683294838488101
1724854964093092900,11.0000927734375,-0.8723848918318748,-0.3234220990434289,-0.5075327580302953
1724854964103142100,11.01014208984375,-0.9841513223588466,-0.4411870393328368,-0.5304805028975009
1724854964113194200,11.0201943359375,-0.8600146550804376,-0.6055260992705822,-0.6032879649549723
1724854964123246000,11.03024609375,-0.8406634734004735,-0.717235685043782,-0.5087573313891888
1724854964133297200,11.040297119140625,-0.6798579944163561,-0.6846100112490355,-0.2777303151875734
1724854964143349200,11.050349365234375,-0.4469055631101131,-0.5869364034824073,-0.08792319812476634
1724854964153401000,11.060401123046875,-0.6596604250401258,-0.4907951198495924,-0.024522446838021277
1724854964163453400,11.070453369140624,-0.7428051567167043,-0.48725028684958815,-0.17403905456662178
1724854964173505300,11.08050537109375,-0.7381067697674035,-0.5578676915168762,-0.28898879130482674
1724854964183556400,11.090556396484375,-0.7805103257328272,-0.6734091105379164,-0.3893196355819702
1724854964193608200,11.100608154296875,-0.7703197711080312,-0.826612590085715,-0.4726911617517471
1724854964203660300,11.110660400390625,-0.6784364371806383,-0.9525861174024641,-0.34029110851883887
1724854964213712100,11.120712158203125,-0.6041898822307586,-0.816755066807568,-0.17171850266456604
1724854964223764200,11.13076416015625,-0.30659926679730415,-0.4402881907969713,-0.06352583897113799
1724854964233815300,11.140815185546876,-0.016974515676498412,-0.08496434831917285,0.07363923670649528
1724854964243867100,11.1508671875,0.05229892703592777,0.12760288208425044,0.23507658385336397
1724854964253919500,11.16091943359375,-0.08429916240870952,0.15291414121240376,0.2820095999419689
1724854964263971300,11.170971435546875,-0.17491642192304133,-0.015460603982210159,0.06499181987047195
1724854964274023200,11.181023193359374,0.03621872985064983,-0.3194257228836417,-0.05418751726150512
1724854964284075300,11.1910751953125,0.4524351401865482,-0.6702174748897552,-0.09377893841564655
1724854964294126300,11.201126220703125,-0.0033908114820718764,-0.6614905630767345,-0.11015724176466464
1724854964304178200,11.21117822265625,0.18268004166185856,-0.5251046550780535,-0.11202654276788233
1724854964314230300,11.221230224609375,0.5266881248772144,-0.32303017711639403,-0.18488602727353573
1724854964324282000,11.2312822265625,0.32002690364718434,0.11302578293830155,-0.13742168078720568
1724854964334334200,11.241334228515624,0.10426993729174136,0.39191315920650954,0.018797639450430868
1724854964344385000,11.251385009765626,-0.14796119498014448,0.6117363520875573,0.021945874348282813
1724854964354437400,11.261437255859375,0.15691665485203266,0.31321020936965943,0.09885551102757453
1724854964364489200,11.2714892578125,-0.21943477808535097,0.16927549342662096,0.1146428627461195
1724854964374541300,11.281541259765625,0.05931348197311163,-0.10250263535827397,0.13534136738181113
1724854964384593200,11.29159326171875,-0.1929296329975128,-0.1893900606945157,0.21984628149569033
1724854964394644200,11.301644287109376,0.4818643560275435,-0.5214847110152244,0.5162082319170236
1724854964404696300,11.3116962890625,0.049047816285490986,-0.3277677270323038,0.6208154383391141
1724854964414748200,11.321748046875,-0.3201239342808723,-0.26308307341486215,0.5809036991894245
1724854964424800300,11.33180029296875,-0.5071043034851551,-0.28339257873296736,0.4238911827474832
1724854964434852400,11.341852294921875,-0.6203612648308277,-0.4284241500020027,0.09324351636469363
1724854964444903200,11.351903076171874,0.12887071006298065,-1.0956757608234882,0.0638175153940916
1724854964454955300,11.361955322265626,-0.1154091709434986,-0.9325544061124325,0.2034036807388067
1724854964465007400,11.37200732421875,-0.0010626607954502105,-0.45728374926149845,0.530657613030076
1724854964475059200,11.38205908203125,0.11669745718836784,0.2326145776540041,0.9117436732739209
1724854964485111300,11.392111328125,0.2786240491569042,0.7219628596961498,1.2969798389345406
1724854964495163100,11.4021630859375,0.323097397133708,0.9546206919699907,1.6386790606856345
1724854964505214200,11.412214111328124,0.43672962153255934,0.6295768369436263,1.7405810998022555
1724854964515266300,11.422266357421876,0.2795037546008825,0.3262649212539196,1.6642191601336
1724854964525318100,11.432318115234375,0.3429194111958146,-0.011138064607977867,1.4193664476752281
1724854964535370200,11.442370361328125,0.9147747115328907,-0.65543783890903,1.075666407495737
1724854964545422300,11.45242236328125,0.7270452775269747,-0.6427256568521261,0.6756196261942387
1724854964555473400,11.462473388671874,0.22947335701882837,-0.12836977480351924,0.5904167929440737
1724854964565525200,11.472525146484376,0.1832832682520151,0.48769642318189144,0.4254746525466442
1724854964575577300,11.482577392578126,0.4092611843705177,0.6171615920066833,0.31442893750965595
1724854964585629200,11.492629150390625,0.311935367128253,0.7733043398767709,0.39228725321590896
1724854964595681300,11.502681396484375,0.17620266234129667,1.0210025048941374,0.049969022783637046
1724854964605732000,11.512732177734375,0.49663142478764055,0.6364981606394052,-0.1549713660031557
1724854964615784200,11.5227841796875,0.42092765676677224,0.5089513926565646,0.07410334708690643
1724854964625836000,11.5328359375,-0.07417524327933787,0.7672568764060735,0.12016659460365771
1724854964635888400,11.542888427734376,0.4408300425887108,0.5053969150453805,-0.12869476897418497
1724854964645940200,11.552940185546875,0.6025432840675116,0.7091150685608386,0.13204115679264067
1724854964655991300,11.5629912109375,0.394678240005672,1.2301210561484097,0.2262134784400463
1724854964666043400,11.57304345703125,0.5318897851735354,1.199980184906721,0.29121114352941513
1724854964676095200,11.58309521484375,0.09844166952967644,1.340209908851981,0.6363257266819476
1724854964686147300,11.593147216796876,-0.4935790514796972,1.2872288447707891,0.6889642609357833
1724854964696199200,11.60319921875,-0.23879122046232223,0.4399275407910347,0.5774339772522449
1724854964706250200,11.613250244140625,0.15870499957352877,-0.277708687877655,0.39403146653473375
1724854964716302000,11.623302001953125,0.30487726531028747,-0.5626046569108962,0.42097500303983687
1724854964726354400,11.6333544921875,0.5145698170602321,-0.3794593358248472,0.4340729695439338
1724854964736406300,11.64340625,1.1621794465616344,-0.5096890592813491,0.15782675543427466
1724854964746458400,11.653458251953126,0.8109972339332103,-0.14645488207042218,0.08484335228800773
1724854964756509200,11.66350927734375,0.16164894407093525,0.31791677962541576,0.09493336914777756
1724854964766561300,11.673561279296875,-0.21488310613036155,0.4391057030141353,-0.11807108362913131
1724854964776613000,11.683613037109374,-0.44914837360084053,0.3929781580895185,-0.39320729067027566
1724854964786665200,11.693665283203124,-0.6457920586854219,0.3548772677540779,-0.4357043701380491
1724854964796717000,11.703717041015626,-0.8911173570916057,0.37227263919115067,-0.1477957752853632
1724854964806768000,11.71376806640625,-0.3440206504359841,0.47431087190806864,-0.14206746076643467
1724854964816820200,11.7238203125,-0.6342392757967114,0.7448942379504442,-0.1380798524349928
1724854964826872300,11.733872314453125,-0.6725929718494414,0.5011176302909851,-0.4317021487593651
1724854964836924400,11.74392431640625,-0.2975762946471572,0.32121172951757904,-0.5990589490830898
1724854964846976300,11.753976318359374,-0.25159312662929295,0.24781214678585528,-0.7969213623076676
1724854964857027300,11.76402734375,-0.22361790898889303,0.3275029386162758,-0.82854750367105
1724854964867079200,11.7740791015625,0.04711830952763557,0.5033896668761968,-0.7676794857323169
1724854964877131300,11.78413134765625,0.301161167396605,0.9849152924686669,-0.6166741007506847
1724854964887183000,11.79418310546875,0.42703386468738314,1.2321657137185333,-0.40926235341429706
1724854964897235200,11.804235107421874,0.4550356780737638,1.4184703756183386,-0.07860182754993439
1724854964907286300,11.814286376953126,0.30647242554724213,1.1850643553256988,0.1509673910588026
1724854964917338000,11.824338134765625,0.1737543924063444,0.9508411734312772,0.2808148371994495
1724854964927390500,11.834390380859375,0.11376374182403087,0.7979284935235976,0.3887105637729168
1724854964937442300,11.8444423828125,0.02984627220928669,0.5293307483404874,0.4093786732703447
1724854964947494100,11.854494140625,0.052129707948863506,0.27089433168768884,0.3789537243902683
1724854964957545200,11.864545166015626,-0.08888473663330078,-0.16151684212386608,0.191360776245594
1724854964967597300,11.874597412109376,-0.125285545052588,-0.25253157652318475,0.24232874693870543
1724854964977649200,11.884649169921875,-0.15410159743130206,0.00963993500471115,0.3602309037417173
1724854964987701200,11.894701171875,0.021665596102178095,0.5036100316286086,0.4716255783468485
1724854964997753000,11.904753173828125,0.043126609542965884,0.8246201010942459,0.5620084445834159
1724854965007804200,11.91480419921875,-0.29000498261004687,0.6264508138775825,0.5745516998142004
1724854965017856300,11.924856201171876,-0.44341070673167704,0.18902794938385487,0.6467594424128532
1724854965027908400,11.934908447265625,-0.6460153460472822,-0.34765491528511044,0.40965690568983554
1724854965037960200,11.944960205078125,-0.5881675527125597,-0.42271746279299255,-0.00533259319961071
1724854965048012300,11.95501220703125,-0.3205935976192355,-0.0749848060965538,-0.20836451801657677
1724854965058063400,11.9650634765625,-0.4204577011674642,-0.1799503244370222,-0.286698050019145
1724854965068115200,11.975115234375,-0.24053777186870573,-0.03758534202873707,-0.008366261807084083
1724854965078167300,11.985167236328126,-0.15397534070312976,-0.08029752555191516,0.2659370015412569
1724854965088219100,11.99521923828125,-0.16620441541820763,-0.05327215598225593,0.48329146622121333
1724854965098270200,12.005270263671875,-0.0414443555444479,0.06741466310322285,0.7757733603388071
1724854965108321300,12.0153212890625,-0.023660861572623253,0.023818097960948942,0.737809248125553
1724854965118373000,12.025373046875,0.024846271964907643,0.0790624307990074,0.889559313994646
1724854965128425500,12.035425537109376,0.13074760985076428,0.05463993720412254,1.0795599078029394
1724854965138477300,12.045477294921875,0.29375965896844863,-0.0165828860104084,1.4535498723059892
1724854965148529400,12.055529296875,-0.00822656107544899,-0.08961772708296775,1.5350368999034165
1724854965158580200,12.065580322265625,0.016205869391560553,-0.09131576317250728,1.6815367901593445
1724854965168632300,12.07563232421875,-0.29806349364221096,-0.10227964025735854,1.1576000098168848
1724854965178684200,12.08568408203125,-0.4237842152416706,-0.1091875199496746,0.9383224681198596
1724854965188736300,12.095736328125,-0.09670563951730728,0.10840601418316363,1.0253659608006476
1724854965198787300,12.105787353515625,-0.25287644443809987,-0.018173954594135282,0.48992637419104573
1724854965208839200,12.115839111328125,-0.35012042861580844,-0.05866787754595279,0.32512101191580295
1724854965218891300,12.125891357421875,-0.27045710931420325,0.19949264477491377,0.5129273105502128
1724854965228943400,12.135943359375,-0.39987434734404087,0.06693827776312827,0.3189975605994463
1724854965238995200,12.1459951171875,-0.45279520567059517,0.11388269202858209,0.5497744014322757
1724854965249046300,12.15604638671875,-0.4731809910953045,0.07678659482151269,0.37154432491660117
1724854965259098400,12.166098388671875,-0.3022480858504772,0.0028498364731669424,0.4257832801043987
1724854965269150200,12.176150146484375,-0.33030922820866104,-0.2486561963945627,0.09435936865210533
1724854965279202300,12.186202392578124,-0.0934323169350624,-0.23133681280314922,0.21227555398046968
1724854965289254100,12.196254150390626,0.08962415682375431,0.12539368160218,0.4830792847752571
1724854965299305200,12.20630517578125,0.08951602027416229,0.28306553873568774,0.5687666866719723
1724854965309357000,12.216357177734375,-0.02153203285038471,0.2728787835031748,0.776204152971506
1724854965319409200,12.2264091796875,-0.13202888183295727,0.44644466760009527,0.8909194964319467
1724854965329461200,12.236461181640625,-0.4134691574543714,0.7681976643875241,1.050830072402954
1724854965339513300,12.246513427734374,-0.2707294965147972,0.7282002927809953,0.5792851580768823
1724854965349564400,12.256564453125,-0.22533435751795766,0.9062982673496007,-0.04982055422365665
1724854965359616300,12.2666162109375,-0.2786515216857195,0.8043667098775505,-0.40230888101458545
1724854965369668400,12.27666845703125,-1.000913072067499,1.2850827726528047,-0.10095920530855655
1724854965379720200,12.28672021484375,-0.9139613493233919,1.010864849500358,-0.22048224131166932
1724854965389771300,12.296771240234374,-0.4904939449459314,1.116472465136647,-0.45718671862781046
1724854965399823000,12.306822998046876,0.2183966672092676,0.7671294506341219,-0.39871640948057174
1724854965409875200,12.316875244140626,-0.3931652050942182,1.1919520690128207,-0.47363691816926
1724854965419927300,12.32692724609375,-0.5400251608341932,1.2423358100771904,-0.7867296386390924
1724854965429979400,12.3369794921875,-0.5551105017632245,1.1770543596103786,-0.3517874850451946
1724854965440030500,12.347030517578125,-0.7331278123110533,0.8600205002993345,0.1379915896296501
1724854965450082300,12.357082275390624,-0.7386381001651287,1.2228972423747182,0.8396633564472198
1724854965460134100,12.367134033203126,-0.6088257253378629,1.2606281303539872,0.7635878325045108
1724854965470186200,12.377186279296875,-0.1821376053482294,1.280305036856979,-0.21589315995573996
1724854965480238000,12.387238037109375,-0.48219490315616126,1.4997260786779223,-0.007832008799910545
1724854965490289200,12.3972890625,-1.0754869592756033,0.6358695073470473,0.12633330053985117
1724854965500341200,12.40734130859375,-1.7307511951833963,0.5162012176543473,-0.8599526957601308
1724854965510393000,12.41739306640625,-2.2093284923642873,1.1488942869223653,-1.7781348776489496
1724854965520445400,12.427445556640626,-1.3380711432576178,0.05178951620906591,-1.2474591444402932
1724854965530496300,12.437496337890625,-2.0072990225881338,-0.6848448429182171,-1.0880354752033947
1724854965540548400,12.44754833984375,-0.9423036467105149,-0.9871575184375047,-0.8251146066129207
1724854965550600200,12.45760009765625,-1.6805688219100237,0.5356588553834706,-0.9482155011028051
1724854965560652300,12.46765234375,-1.439157774338126,0.38753114473000166,-0.8515548697710037
1724854965570704100,12.4777041015625,-1.653855587029457,-0.29015133227817713,-2.0160563295394183
1724854965580755200,12.487755126953125,-0.7300526426494122,-0.04304660310931503,-2.053947961038351
1724854965590807300,12.497807373046875,-2.028969587126374,-1.4144564638018606,-2.06116797541976
1724854965600859100,12.507859130859375,-2.0850608921825886,-1.0658093226090073,-1.3284335463404655
1724854965610911200,12.5179111328125,-0.8917179533332585,-0.08965425970107316,-0.8443313482582568
1724854965620962000,12.527962158203126,-0.37553602490127086,0.19396226398088037,-0.5448854603469372
1724854965631014400,12.538014404296876,-0.12634440645575523,0.10627455511242151,-0.0411783980846405
1724854965641066200,12.548066162109375,-0.06600596534907817,0.3121818161699921,-0.257507026848197
1724854965651118300,12.558118408203125,0.3733206869393587,-0.24017456457950173,-0.31768472443521023
1724854965661170200,12.568170166015625,-0.5090057531923056,-1.6002537607014178,-0.8638140473634004
1724854965671221200,12.57822119140625,-0.3277724032074213,-0.9842777982827275,-0.7103840655833482
