time,seconds_elapsed,z,y,x
1724854953141569800,0.04856982421875,-0.711883544921875,-0.5280303955078125,0.0237274169921875
1724854953151622000,0.058621826171875,-0.788360595703125,-0.474609375,0.1201629638671875
1724854953161673700,0.068673828125,-0.828582763671875,-0.3545989990234375,0.226104736328125
1724854953171726000,0.07872607421875,-0.8426971435546875,-0.377838134765625,0.2087860107421875
1724854953181778000,0.08877783203125,-0.8384857177734375,-0.4241943359375,0.2032470703125
1724854953191829000,0.0988291015625,-0.851226806640625,-0.43634033203125,0.2414703369140625
1724854953201880800,0.108880859375,-0.9230194091796875,-0.4131011962890625,0.302642822265625
1724854953211933000,0.118932861328125,-0.9799957275390625,-0.351837158203125,0.3447723388671875
1724854953221984800,0.12898486328125,-1.00433349609375,-0.3712005615234375,0.4086456298828125
1724854953232036900,0.139036865234375,-0.8973541259765625,-0.33563232421875,0.50018310546875
1724854953242088700,0.149088623046875,-0.8612518310546875,-0.32244873046875,0.5224151611328125
1724854953252140800,0.159140869140625,-0.989532470703125,-0.4886932373046875,0.4356536865234375
1724854953262193000,0.16919287109375,-0.9866485595703125,-0.5540924072265625,0.2848663330078125
1724854953272245000,0.179244873046875,-0.98712158203125,-0.579193115234375,0.2443695068359375
1724854953282296800,0.189296875,-0.90374755859375,-0.539093017578125,0.2668914794921875
1724854953292348000,0.199347900390625,-0.76953125,-0.4635009765625,0.303436279296875
1724854953302400000,0.20939990234375,-0.7290191650390625,-0.3924407958984375,0.363616943359375
1724854953312451800,0.219451904296875,-1.03350830078125,-0.2891998291015625,0.467437744140625
1724854953322503700,0.229503662109375,-0.9751739501953125,-0.2444305419921875,0.4942169189453125
1724854953332555800,0.2395556640625,-0.8421173095703125,-0.2890167236328125,0.4602508544921875
1724854953342608000,0.24960791015625,-0.81549072265625,-0.3345794677734375,0.4024658203125
1724854953352660000,0.259659912109375,-0.790618896484375,-0.3740234375,0.3601837158203125
1724854953362711800,0.2697119140625,-0.7555694580078125,-0.420623779296875,0.3095550537109375
1724854953372764000,0.279763916015625,-0.68121337890625,-0.4840850830078125,0.270721435546875
1724854953382815000,0.28981494140625,-0.579315185546875,-0.538543701171875,0.233489990234375
1724854953392866800,0.29986669921875,-0.4636077880859375,-0.5775146484375,0.23858642578125
1724854953402919000,0.3099189453125,-0.4020843505859375,-0.620513916015625,0.2500762939453125
1724854953412970800,0.319970703125,-0.45086669921875,-0.710906982421875,0.249847412109375
1724854953423023000,0.330023193359375,-0.5102996826171875,-0.8153076171875,0.268585205078125
1724854953433075000,0.340074951171875,-0.5067291259765625,-0.8429718017578125,0.3181610107421875
1724854953443127000,0.350126953125,-0.6392364501953125,-0.80743408203125,0.3218994140625
1724854953453179000,0.360178955078125,-0.858184814453125,-0.7704010009765625,0.3279266357421875
1724854953463231000,0.37023095703125,-0.9094696044921875,-0.760955810546875,0.35302734375
1724854953473282800,0.38028271484375,-0.7066802978515625,-0.764129638671875,0.311187744140625
1724854953483334000,0.390333984375,-0.5587615966796875,-0.665130615234375,0.229827880859375
1724854953493385700,0.4003857421875,-0.592498779296875,-0.42120361328125,0.37908935546875
1724854953503437800,0.410437744140625,-0.667205810546875,-0.321624755859375,0.460845947265625
1724854953513490000,0.420489990234375,-0.7652435302734375,-0.470977783203125,0.404876708984375
1724854953523542000,0.4305419921875,-0.75665283203125,-0.5789337158203125,0.4420623779296875
1724854953533593900,0.44059375,-0.7368011474609375,-0.6242523193359375,0.5098876953125
1724854953543646000,0.45064599609375,-0.758056640625,-0.57379150390625,0.5666656494140625
1724854953553697800,0.46069775390625,-0.775146484375,-0.4953765869140625,0.550750732421875
1724854953563750000,0.47075,-0.771240234375,-0.5172882080078125,0.422454833984375
1724854953573801700,0.4808017578125,-0.7158355712890625,-0.5970306396484375,0.29266357421875
1724854953583852800,0.490852783203125,-0.63458251953125,-0.6357269287109375,0.251800537109375
1724854953593905000,0.50090478515625,-0.621612548828125,-0.635009765625,0.2918548583984375
1724854953603957000,0.51095703125,-0.6681060791015625,-0.564422607421875,0.3759613037109375
1724854953614008800,0.5210087890625,-0.7413177490234375,-0.506072998046875,0.345458984375
1724854953624061000,0.53106103515625,-0.7857513427734375,-0.567230224609375,0.270843505859375
1724854953634112800,0.54111279296875,-0.72161865234375,-0.6169281005859375,0.3080291748046875
1724854953644164900,0.551164794921875,-0.69305419921875,-0.6254425048828125,0.32952880859375
1724854953654216700,0.561216796875,-0.7503662109375,-0.608184814453125,0.3011627197265625
1724854953664269000,0.57126904296875,-0.802947998046875,-0.5660552978515625,0.3092498779296875
1724854953674320000,0.58131982421875,-0.8339996337890625,-0.57275390625,0.3001251220703125
1724854953684372000,0.5913720703125,-0.83892822265625,-0.5695343017578125,0.295074462890625
1724854953694423800,0.601423828125,-0.79901123046875,-0.5671539306640625,0.2800750732421875
1724854953704476000,0.611475830078125,-0.7360992431640625,-0.5399017333984375,0.2704315185546875
1724854953714527700,0.62152783203125,-0.7385101318359375,-0.4873199462890625,0.3043670654296875
1724854953724579800,0.631579833984375,-0.8138275146484375,-0.4847869873046875,0.30755615234375
1724854953734631700,0.641631591796875,-0.8525543212890625,-0.459442138671875,0.3397979736328125
1724854953744684000,0.65168408203125,-0.8766326904296875,-0.40582275390625,0.37908935546875
1724854953754735900,0.66173583984375,-0.8699951171875,-0.3936004638671875,0.39031982421875
1724854953764788000,0.6717880859375,-0.8696441650390625,-0.4272918701171875,0.3808746337890625
1724854953774839000,0.681839111328125,-0.9050445556640625,-0.464630126953125,0.380523681640625
1724854953784891000,0.691890869140625,-0.950836181640625,-0.45819091796875,0.393402099609375
1724854953794943000,0.70194287109375,-0.9538116455078125,-0.4414215087890625,0.3968048095703125
1724854953804994800,0.711994873046875,-0.897064208984375,-0.4243316650390625,0.3880615234375
1724854953815047000,0.722046875,-0.807769775390625,-0.418731689453125,0.37249755859375
1724854953825098800,0.7320986328125,-0.7285614013671875,-0.394195556640625,0.3759002685546875
1724854953835150800,0.74215087890625,-0.6993865966796875,-0.344207763671875,0.3786163330078125
1724854953845203000,0.752202880859375,-0.6929931640625,-0.29327392578125,0.407012939453125
1724854953855254800,0.7622548828125,-0.7037353515625,-0.254669189453125,0.46343994140625
1724854953865305900,0.772305908203125,-0.7448883056640625,-0.210113525390625,0.512298583984375
1724854953875358000,0.78235791015625,-0.773101806640625,-0.152130126953125,0.564300537109375
1724854953885409800,0.792409912109375,-0.7569427490234375,-0.0945281982421875,0.5781097412109375
1724854953895462000,0.8024619140625,-0.7212677001953125,-0.0611572265625,0.540374755859375
1724854953905513700,0.812513671875,-0.6321868896484375,-0.0344696044921875,0.5094146728515625
1724854953915566000,0.822566162109375,-0.4041290283203125,0.065185546875,0.5439910888671875
1724854953925618000,0.832617919921875,-0.4117889404296875,0.0792236328125,0.4748687744140625
1724854953935670000,0.842669921875,-0.35858154296875,0.058624267578125,0.435821533203125
1724854953945721900,0.852721923828125,-0.3263092041015625,0.065826416015625,0.4826812744140625
1724854953955773000,0.86277294921875,-0.3116302490234375,0.0982818603515625,0.5201263427734375
1724854953965824800,0.87282470703125,-0.3367462158203125,0.12176513671875,0.5128326416015625
1724854953975876900,0.882876953125,-0.3697509765625,0.1122589111328125,0.54400634765625
1724854953985928700,0.8929287109375,-0.472686767578125,0.0973663330078125,0.618988037109375
1724854953995981000,0.90298095703125,-0.540771484375,0.1480560302734375,0.6586456298828125
1724854954006033000,0.913032958984375,-0.5835113525390625,0.235809326171875,0.6634368896484375
1724854954016085000,0.9230849609375,-0.573944091796875,0.29638671875,0.6555023193359375
1724854954026136800,0.93313671875,-0.4733428955078125,0.31829833984375,0.646453857421875
1724854954036189000,0.94318896484375,-0.35296630859375,0.320770263671875,0.633819580078125
1724854954046240800,0.95324072265625,-0.2389984130859375,0.3454742431640625,0.651580810546875
1724854954056291800,0.963291748046875,-0.18292236328125,0.3363800048828125,0.7240142822265625
1724854954066343700,0.97334375,-0.2013702392578125,0.3307037353515625,0.7855987548828125
1724854954076396000,0.98339599609375,-0.2720184326171875,0.335601806640625,0.887725830078125
1724854954086451500,0.993451416015625,-0.3946533203125,0.3710784912109375,0.9998779296875
1724854954096503800,1.00350390625,-0.556304931640625,0.3791656494140625,1.1317901611328125
1724854954106555600,1.0135556640625,-0.7189788818359375,0.388885498046875,1.248291015625
1724854954116607700,1.023607666015625,-0.769378662109375,0.42681884765625,1.2826080322265625
1724854954126659600,1.03365966796875,-0.67059326171875,0.4501190185546875,1.2782745361328125
1724854954136711700,1.043711669921875,-0.731658935546875,0.310516357421875,1.309051513671875
1724854954146763500,1.053763427734375,-0.5198822021484375,0.25927734375,1.266082763671875
1724854954156814600,1.063814697265625,-0.327423095703125,0.263458251953125,1.283447265625
1724854954166866400,1.073866455078125,-0.43182373046875,0.192779541015625,1.4058685302734375
1724854954176918500,1.08391845703125,-0.6280364990234375,0.1313323974609375,1.52740478515625
1724854954186970600,1.093970703125,-0.7281341552734375,0.1787567138671875,1.6016693115234375
1724854954197022700,1.104022705078125,-0.7694549560546875,0.274993896484375,1.670562744140625
1724854954207074600,1.114074462890625,-0.7241973876953125,0.370635986328125,1.7613983154296875
1724854954217126700,1.124126708984375,-0.6150054931640625,0.3812713623046875,1.7705078125
1724854954227178500,1.134178466796875,-0.5008392333984375,0.3314971923828125,1.7484588623046875
1724854954237230600,1.144230712890625,-0.4601593017578125,0.1898345947265625,1.8149566650390625
1724854954247281700,1.15428173828125,-0.3135528564453125,-0.0618743896484375,1.8704376220703125
1724854954257333500,1.16433349609375,0.082275390625,-0.2945098876953125,1.856781005859375
1724854954267385600,1.174385498046875,0.55133056640625,-0.4550933837890625,1.825653076171875
1724854954277437700,1.184437744140625,0.583587646484375,-0.3850250244140625,1.587554931640625
1724854954287489500,1.194489501953125,0.4494476318359375,-0.130096435546875,1.5015411376953125
1724854954297541600,1.204541748046875,0.22186279296875,0.2534637451171875,1.628631591796875
1724854954307593500,1.214593505859375,-0.1410369873046875,0.6031036376953125,1.6303253173828125
1724854954317645600,1.2246455078125,-0.37713623046875,0.60150146484375,1.4445343017578125
1724854954327697400,1.234697509765625,-0.4030303955078125,0.586944580078125,1.233489990234375
1724854954337749800,1.244749755859375,-0.376617431640625,0.60693359375,1.0578765869140625
1724854954347800800,1.25480078125,-0.1937255859375,0.715606689453125,1.0458831787109375
1724854954357852700,1.264852783203125,-0.1819000244140625,0.88360595703125,1.099395751953125
1724854954367904800,1.27490478515625,-0.64007568359375,0.920440673828125,1.134674072265625
1724854954377956600,1.28495654296875,-0.9824066162109375,0.9107513427734375,1.171234130859375
1724854954388008700,1.2950087890625,-0.692962646484375,0.63311767578125,0.8718719482421875
1724854954398060500,1.305060546875,-0.291351318359375,0.4791717529296875,0.797454833984375
1724854954408112600,1.315112548828125,-0.24957275390625,0.3870391845703125,0.6967926025390625
1724854954418164700,1.325164794921875,-0.08489990234375,0.246337890625,0.481201171875
1724854954428216600,1.335216552734375,-0.00372314453125,0.2296142578125,0.5503692626953125
1724854954438267600,1.345267578125,0.095062255859375,0.12841796875,0.488067626953125
1724854954448319700,1.35531982421875,0.5955047607421875,-0.00115966796875,0.14892578125
1724854954458371600,1.36537158203125,0.72650146484375,0.28826904296875,0.44573974609375
1724854954468423700,1.375423583984375,-0.07293701171875,0.7274169921875,0.710296630859375
1724854954478475500,1.3854755859375,-1.1420745849609375,0.9180145263671875,0.907440185546875
1724854954488527600,1.395527587890625,-1.35614013671875,0.6613311767578125,0.6401214599609375
1724854954498579500,1.405579345703125,-1.0766143798828125,0.5272674560546875,0.621826171875
1724854954508631800,1.4156318359375,-1.0462188720703125,0.4146575927734375,0.4475860595703125
1724854954518683600,1.42568359375,-0.5755615234375,0.3287353515625,0.452880859375
1724854954528735700,1.43573583984375,0.175262451171875,0.2757568359375,0.51263427734375
1724854954538786600,1.44578662109375,0.08172607421875,0.0835723876953125,0.5076751708984375
1724854954548838700,1.455838623046875,0.5537872314453125,-0.153656005859375,0.4571075439453125
1724854954558890500,1.465890380859375,0.4609375,-0.122650146484375,0.432220458984375
1724854954568942600,1.475942626953125,-0.141387939453125,-0.088226318359375,0.53143310546875
1724854954578994400,1.485994384765625,-0.3551025390625,0.22186279296875,0.5837249755859375
1724854954589046800,1.496046875,-0.3509063720703125,0.6380767822265625,0.634552001953125
1724854954599098600,1.5060986328125,-0.599639892578125,0.73236083984375,0.6720428466796875
1724854954609150700,1.516150634765625,-0.5549163818359375,0.565948486328125,0.782135009765625
1724854954619202600,1.52620263671875,-0.4254302978515625,0.423828125,0.72052001953125
1724854954629253600,1.536253662109375,-0.4706878662109375,0.3377685546875,0.567718505859375
1724854954639305500,1.546305419921875,-0.4809417724609375,0.24029541015625,0.551177978515625
1724854954649357600,1.556357666015625,-0.361541748046875,0.1302490234375,0.7945709228515625
1724854954659409400,1.566409423828125,-0.325225830078125,0.1959075927734375,0.9112091064453125
1724854954669461800,1.576461669921875,-0.0202789306640625,0.296295166015625,0.943450927734375
1724854954679513600,1.586513671875,0.214813232421875,0.34698486328125,0.8147430419921875
1724854954689565700,1.596565673828125,0.2833709716796875,0.379241943359375,0.7346343994140625
1724854954699617500,1.606617431640625,0.234466552734375,0.416961669921875,0.669921875
1724854954709669600,1.616669677734375,-0.048492431640625,0.3335723876953125,0.7387237548828125
1724854954719721500,1.626721435546875,-0.340850830078125,0.3314666748046875,0.85888671875
1724854954729772500,1.6367724609375,-0.1759490966796875,0.4990081787109375,1.2378692626953125
1724854954739824600,1.64682470703125,-0.124481201171875,0.481475830078125,1.1650238037109375
1724854954749876700,1.656876708984375,-0.1357421875,0.5419158935546875,1.18170166015625
1724854954759928600,1.666928466796875,-0.14898681640625,0.5325775146484375,1.1996917724609375
1724854954769980700,1.676980712890625,-0.086700439453125,0.5331268310546875,1.134521484375
1724854954780032500,1.687032470703125,-0.0557098388671875,0.5141448974609375,1.092620849609375
1724854954790084600,1.697084716796875,-0.080322265625,0.516815185546875,1.102081298828125
1724854954800136400,1.707136474609375,-0.1096954345703125,0.490142822265625,1.0699462890625
1724854954810188500,1.7171884765625,-0.1610565185546875,0.4882354736328125,1.020751953125
1724854954820240600,1.72724072265625,-0.1766357421875,0.602142333984375,1.010406494140625
1724854954830291500,1.73729150390625,-0.0954742431640625,0.6094970703125,0.8859710693359375
1724854954840343800,1.74734375,-0.1629638671875,0.8447265625,0.772430419921875
1724854954850395600,1.757395751953125,-0.1205291748046875,0.7875518798828125,0.852935791015625
1724854954860447700,1.76744775390625,0.136260986328125,0.4014739990234375,0.90631103515625
1724854954870499600,1.77749951171875,0.4192962646484375,0.34735107421875,0.9551544189453125
1724854954880551700,1.7875517578125,0.63555908203125,0.2969512939453125,1.2094879150390625
1724854954890603500,1.797603515625,0.262298583984375,0.436553955078125,1.174591064453125
1724854954900655600,1.807655517578125,-0.1346435546875,0.5820770263671875,0.89581298828125
1724854954910707700,1.817707763671875,0.0167236328125,0.5362701416015625,0.865081787109375
1724854954920758800,1.8277587890625,0.117462158203125,0.434539794921875,1.06378173828125
1724854954930810600,1.837810546875,0.168701171875,0.6119537353515625,1.087188720703125
1724854954940862700,1.84786279296875,0.1488037109375,0.859832763671875,1.0680389404296875
1724854954950914600,1.85791455078125,0.075164794921875,0.916534423828125,1.1585845947265625
1724854954960966700,1.867966552734375,0.111480712890625,0.6438446044921875,1.2696990966796875
1724854954971018500,1.8780185546875,0.16937255859375,0.4010772705078125,1.162200927734375
1724854954981070600,1.888070556640625,0.2037200927734375,0.2651824951171875,0.958984375
1724854954991122700,1.898122802734375,0.2884979248046875,0.23748779296875,0.808441162109375
1724854955001174800,1.9081748046875,0.375030517578125,0.194793701171875,0.883148193359375
1724854955011225600,1.9182255859375,0.4047698974609375,0.2569122314453125,0.99169921875
1724854955021277700,1.928277587890625,0.41351318359375,0.2299652099609375,1.0729522705078125
1724854955031329500,1.93832958984375,0.2181854248046875,0.2562713623046875,0.9395599365234375
1724854955041381600,1.948381591796875,0.111968994140625,0.3237152099609375,0.7528228759765625
1724854955051433500,1.95843359375,0.1372528076171875,0.4075775146484375,0.6228485107421875
1724854955061485600,1.968485595703125,0.0538482666015625,0.4558868408203125,0.52545166015625
1724854955071537700,1.97853759765625,-0.0758819580078125,0.443267822265625,0.479522705078125
1724854955081589800,1.98858984375,-0.0678558349609375,0.4606170654296875,0.412811279296875
1724854955091641900,1.998641845703125,-0.0577392578125,0.470703125,0.334869384765625
1724854955101694000,2.00869384765625,-0.10919189453125,0.49560546875,0.1851043701171875
1724854955111744800,2.018744873046875,-0.1478118896484375,0.484954833984375,-0.0823516845703125
1724854955121796900,2.028796875,-0.1331634521484375,0.46246337890625,-0.4210357666015625
1724854955131848700,2.0388486328125,-0.15167236328125,0.542816162109375,-0.46148681640625
1724854955141901000,2.048901123046875,-0.0956268310546875,0.4786224365234375,-0.2447357177734375
1724854955151953000,2.058952880859375,0.05938720703125,0.3724212646484375,-0.00537109375
1724854955162005000,2.0690048828125,0.1702423095703125,0.3782958984375,0.1036529541015625
1724854955172056800,2.079056884765625,0.1635589599609375,0.4904022216796875,0.154052734375
1724854955182109000,2.08910888671875,0.111785888671875,0.630950927734375,0.245208740234375
1724854955192160800,2.099160888671875,-0.0521087646484375,0.8092803955078125,0.31341552734375
1724854955202212900,2.109212890625,-0.3286285400390625,1.0226287841796875,0.3402252197265625
1724854955212264000,2.119263916015625,-0.2674713134765625,1.0282440185546875,0.3616180419921875
1724854955222316000,2.12931591796875,0.1786651611328125,1.010284423828125,0.31341552734375
1724854955232367900,2.139367919921875,0.583984375,1.1795501708984375,0.197296142578125
1724854955242420000,2.149419921875,0.7063751220703125,1.38262939453125,0.1245880126953125
1724854955252471800,2.159471923828125,0.363372802734375,1.465728759765625,0.1593475341796875
1724854955262524000,2.16952392578125,-0.034423828125,1.6118621826171875,0.25665283203125
1724854955272575700,2.17957568359375,-0.1277008056640625,1.6170196533203125,0.257598876953125
1724854955282627800,2.1896279296875,-0.02178955078125,1.5922393798828125,0.17352294921875
1724854955292680000,2.199679931640625,-0.0389862060546875,1.5354766845703125,0.122528076171875
1724854955302730800,2.209730712890625,-0.0279541015625,1.5660552978515625,0.102447509765625
1724854955312783000,2.219783203125,0.0465545654296875,1.5629119873046875,0.1035308837890625
1724854955322835000,2.2298349609375,0.0981903076171875,1.619476318359375,0.107177734375
1724854955332887000,2.239886962890625,0.1262054443359375,1.54931640625,0.0276641845703125
1724854955342939000,2.24993896484375,0.111297607421875,0.9654083251953125,0.036651611328125
1724854955352991000,2.259990966796875,0.1564788818359375,0.84814453125,0.140777587890625
1724854955363042800,2.270042724609375,0.2011871337890625,0.9350433349609375,0.1031646728515625
1724854955373095000,2.280094970703125,0.240875244140625,0.9880828857421875,0.1288604736328125
1724854955383147000,2.29014697265625,0.1595001220703125,1.00274658203125,0.1569366455078125
1724854955393198000,2.300197998046875,0.12847900390625,0.99395751953125,0.173828125
1724854955403250000,2.31025,0.006561279296875,0.9849853515625,0.149169921875
1724854955413302000,2.320302001953125,0.03753662109375,0.9871826171875,0.1830291748046875
1724854955423353900,2.330353759765625,0.113525390625,0.953338623046875,0.1835784912109375
1724854955433406000,2.340406005859375,0.1389617919921875,0.92669677734375,0.159759521484375
1724854955443457800,2.350457763671875,0.187744140625,0.9287261962890625,0.1282958984375
1724854955453510000,2.360510009765625,0.1126861572265625,0.94854736328125,0.091278076171875
1724854955463562000,2.37056201171875,0.0245361328125,1.00103759765625,0.1476898193359375
1724854955473614000,2.380614013671875,0.0009613037109375,1.0221710205078125,0.2135162353515625
1724854955483665000,2.390664794921875,0.07940673828125,0.991973876953125,0.2271270751953125
1724854955493717000,2.400717041015625,0.1573944091796875,0.9640960693359375,0.1918792724609375
1724854955503768800,2.410768798828125,-0.1315460205078125,0.7196502685546875,0.197845458984375
1724854955513821000,2.420821044921875,-0.311126708984375,0.3666229248046875,0.2820892333984375
1724854955523872800,2.430872802734375,0.549835205078125,0.5756072998046875,0.1085205078125
1724854955533924900,2.4409248046875,0.4970245361328125,0.749664306640625,0.0736846923828125
1724854955543977000,2.45097705078125,0.4308013916015625,0.78509521484375,0.2181396484375
1724854955554029000,2.461029052734375,0.44549560546875,0.573333740234375,0.33984375
1724854955564081000,2.471080810546875,0.3104248046875,0.5519256591796875,0.2122039794921875
1724854955574133000,2.481133056640625,0.127532958984375,0.6600341796875,-0.0224151611328125
1724854955584183800,2.491183837890625,0.1122894287109375,0.730438232421875,-0.1996612548828125
1724854955594236000,2.50123583984375,0.0574493408203125,0.6722869873046875,-0.2909393310546875
1724854955604287700,2.511287841796875,0.2715606689453125,0.685394287109375,-0.34747314453125
1724854955614339800,2.52133984375,0.1920318603515625,0.5045928955078125,-0.520416259765625
1724854955624391700,2.5313916015625,0.0540008544921875,0.81427001953125,-0.328155517578125
1724854955634444000,2.541444091796875,-0.237030029296875,1.4506683349609375,0.3220977783203125
1724854955644496000,2.551495849609375,-0.2320404052734375,1.7740478515625,0.9427490234375
1724854955654548000,2.5615478515625,0.058197021484375,1.7657012939453125,1.3791046142578125
1724854955664599800,2.571599853515625,-0.001129150390625,1.02587890625,1.19781494140625
1724854955674651000,2.58165087890625,0.15771484375,0.3881988525390625,0.5572509765625
1724854955684703000,2.591702880859375,0.362823486328125,0.3778228759765625,0.197235107421875
1724854955694754800,2.6017548828125,0.2103424072265625,0.7430877685546875,0.2026519775390625
1724854955704807000,2.611806884765625,0.1725311279296875,1.2317047119140625,0.276885986328125
1724854955714859000,2.62185888671875,0.03155517578125,1.3443756103515625,0.084747314453125
1724854955724910800,2.631910888671875,0.0665283203125,1.2733612060546875,-0.0112152099609375
1724854955734963000,2.641962890625,0.214508056640625,1.1832733154296875,0.1722564697265625
1724854955745014800,2.652014892578125,0.348480224609375,1.3664398193359375,0.3637237548828125
1724854955755067000,2.66206689453125,0.275543212890625,1.369873046875,0.467376708984375
1724854955765118000,2.672117919921875,0.206207275390625,1.3092193603515625,0.529754638671875
1724854955775169800,2.682169677734375,0.238372802734375,1.282257080078125,0.4771728515625
1724854955785222000,2.692221923828125,0.292999267578125,1.312286376953125,0.412628173828125
1724854955795274000,2.70227392578125,0.322265625,1.3459014892578125,0.39501953125
1724854955805326000,2.712326171875,0.325439453125,1.248046875,0.44158935546875
1724854955815378000,2.7223779296875,0.2322998046875,1.073211669921875,0.4693145751953125
1724854955825430000,2.732429931640625,-0.0395660400390625,0.7188720703125,0.38720703125
1724854955835481900,2.74248193359375,-0.14910888671875,0.27923583984375,-0.0382080078125
1724854955845534000,2.752533935546875,0.0684356689453125,0.4973907470703125,-0.108306884765625
1724854955855585800,2.762585693359375,0.2525787353515625,0.7672576904296875,-0.04974365234375
1724854955865636900,2.772636962890625,0.30291748046875,1.0529632568359375,0.2901611328125
1724854955875689000,2.78268896484375,0.29083251953125,1.20928955078125,0.59539794921875
1724854955885741000,2.792740966796875,0.1717681884765625,0.98651123046875,0.5115203857421875
1724854955895793000,2.80279296875,0.2101898193359375,0.8354644775390625,0.3363800048828125
1724854955905845000,2.812844970703125,0.2092742919921875,0.8277740478515625,0.2672119140625
1724854955915896800,2.822896728515625,0.1980133056640625,0.8602294921875,0.31329345703125
1724854955925949000,2.832948974609375,0.1958465576171875,0.8929595947265625,0.3894805908203125
1724854955936000800,2.843000732421875,0.1915740966796875,0.9145355224609375,0.4334716796875
1724854955946053000,2.85305322265625,0.1954193115234375,0.925048828125,0.4018096923828125
1724854955956103700,2.863103759765625,0.2046356201171875,0.925048828125,0.345916748046875
1724854955966156000,2.873156005859375,0.211456298828125,0.9209136962890625,0.31207275390625
1724854955976208000,2.883207763671875,0.2129058837890625,0.910186767578125,0.2969207763671875
1724854955986260000,2.893260009765625,0.213104248046875,0.898284912109375,0.2915191650390625
1724854955996311800,2.903311767578125,0.2194061279296875,0.8941497802734375,0.296051025390625
1724854956006364000,2.913364013671875,0.230438232421875,0.8955078125,0.3157196044921875
1724854956016415700,2.923415771484375,0.24774169921875,0.9087066650390625,0.3299713134765625
1724854956026467800,2.9334677734375,0.2609100341796875,0.905914306640625,0.3537139892578125
1724854956036520000,2.94352001953125,0.2611083984375,0.908538818359375,0.3582000732421875
1724854956046571000,2.953571044921875,0.24615478515625,0.8983001708984375,0.36553955078125
1724854956056623000,2.963623046875,0.2176513671875,0.882781982421875,0.3820953369140625
1724854956066675000,2.973675048828125,0.1988525390625,0.8778839111328125,0.362091064453125
1724854956076727000,2.98372705078125,0.1961517333984375,0.8833770751953125,0.3291778564453125
1724854956086775600,2.993775634765625,0.2062835693359375,0.894683837890625,0.296173095703125
1724854956096827400,3.003827392578125,0.23065185546875,0.911712646484375,0.2734832763671875
1724854956106879500,3.01387939453125,0.2454071044921875,0.93182373046875,0.263031005859375
1724854956116931300,3.023931396484375,0.254791259765625,0.9301300048828125,0.26971435546875
1724854956126983700,3.033983642578125,0.257293701171875,0.9196929931640625,0.26678466796875
1724854956137034800,3.04403466796875,0.2569122314453125,0.9014739990234375,0.2752838134765625
1724854956147086600,3.054086669921875,0.260345458984375,0.9024810791015625,0.2601776123046875
1724854956157138700,3.064138671875,0.2576446533203125,0.91943359375,0.2586517333984375
1724854956167190500,3.0741904296875,0.23858642578125,0.9323577880859375,0.2941131591796875
1724854956177242600,3.08424267578125,0.2154998779296875,0.946075439453125,0.2996673583984375
1724854956187294500,3.09429443359375,0.2046661376953125,0.9424896240234375,0.3034515380859375
1724854956197346600,3.1043466796875,0.19158935546875,0.9275970458984375,0.3291778564453125
1724854956207398700,3.114398681640625,0.180816650390625,0.91961669921875,0.324554443359375
1724854956217450500,3.124450439453125,0.1753692626953125,0.9271697998046875,0.3348846435546875
1724854956227501600,3.13450146484375,0.1753692626953125,0.9293670654296875,0.34930419921875
1724854956237553700,3.1445537109375,0.187835693359375,0.9217987060546875,0.409881591796875
1724854956247605500,3.15460546875,0.15814208984375,0.9203033447265625,0.393157958984375
1724854956257657600,3.16465771484375,0.1417694091796875,0.9225311279296875,0.3609466552734375
1724854956267709400,3.17470947265625,0.16351318359375,0.9245452880859375,0.3155517578125
1724854956277761500,3.184761474609375,0.1834259033203125,0.92547607421875,0.2690582275390625
1724854956287813400,3.1948134765625,0.198486328125,0.9227142333984375,0.2416229248046875
1724854956297865700,3.20486572265625,0.2067413330078125,0.930450439453125,0.2218017578125
1724854956307917600,3.21491748046875,0.2181854248046875,0.919097900390625,0.2691497802734375
1724854956317968600,3.22496875,0.222930908203125,0.9107208251953125,0.2734527587890625
1724854956328020500,3.2350205078125,0.2343902587890625,0.8932342529296875,0.303131103515625
1724854956338072600,3.245072509765625,0.2176361083984375,0.9051666259765625,0.329620361328125
1724854956348124400,3.25512451171875,0.221466064453125,0.9340362548828125,0.3523406982421875
1724854956358176500,3.265176513671875,0.20086669921875,0.92596435546875,0.3735809326171875
1724854956368228400,3.275228271484375,0.176025390625,0.921661376953125,0.3480224609375
1724854956378280700,3.28528076171875,0.1705474853515625,0.9167633056640625,0.34027099609375
1724854956388332500,3.29533251953125,0.1684112548828125,0.90887451171875,0.3314208984375
1724854956398384600,3.305384521484375,0.185333251953125,0.915557861328125,0.3232421875
1724854956408436500,3.3154365234375,0.207000732421875,0.93829345703125,0.3185577392578125
1724854956418487600,3.325487548828125,0.2216033935546875,0.96282958984375,0.3173828125
1724854956428539400,3.335539306640625,0.2405242919921875,0.96978759765625,0.3272857666015625
1724854956438591500,3.345591552734375,0.2436065673828125,0.9290924072265625,0.3813934326171875
1724854956448643300,3.355643310546875,0.26104736328125,0.904998779296875,0.3823089599609375
1724854956458695700,3.36569580078125,0.2636871337890625,0.889404296875,0.4013824462890625
1724854956468747500,3.37574755859375,0.2365264892578125,0.8797454833984375,0.393218994140625
1724854956478799600,3.385799560546875,0.218414306640625,0.879150390625,0.3727569580078125
1724854956488851500,3.3958515625,0.1938323974609375,0.8861541748046875,0.34539794921875
1724854956498903600,3.405903564453125,0.1733856201171875,0.8983917236328125,0.31622314453125
1724854956508954600,3.41595458984375,0.1889190673828125,0.9090423583984375,0.304168701171875
1724854956519006500,3.42600634765625,0.2039794921875,0.918548583984375,0.306884765625
1724854956529058600,3.43605859375,0.2054290771484375,0.9187774658203125,0.3108673095703125
1724854956539110400,3.4461103515625,0.222991943359375,0.9483489990234375,0.2852935791015625
1724854956549162800,3.456162841796875,0.233551025390625,0.9097900390625,0.3208770751953125
1724854956559214600,3.466214599609375,0.2740325927734375,0.876220703125,0.3565826416015625
1724854956569266400,3.476266357421875,0.310791015625,0.921966552734375,0.3318939208984375
1724854956579318500,3.486318603515625,0.270660400390625,1.0005035400390625,0.381256103515625
1724854956589370400,3.496370361328125,0.1021575927734375,1.1006927490234375,0.4947357177734375
1724854956599421400,3.50642138671875,-0.1051177978515625,1.097198486328125,0.5559234619140625
1724854956609473500,3.5164736328125,-0.1363677978515625,1.0229339599609375,0.5028839111328125
1724854956619525400,3.526525390625,-0.0577545166015625,0.956451416015625,0.3786468505859375
1724854956629577700,3.53657763671875,0.055755615234375,0.8768157958984375,0.304412841796875
1724854956639629600,3.546629638671875,0.1270751953125,0.9220428466796875,0.2623748779296875
1724854956649681700,3.556681640625,0.114471435546875,0.9972686767578125,0.285858154296875
1724854956659733500,3.5667333984375,0.162200927734375,1.1285552978515625,0.3116455078125
1724854956669785600,3.57678564453125,0.1025848388671875,1.227325439453125,0.25811767578125
1724854956679837400,3.58683740234375,0.060760498046875,1.265899658203125,0.2057647705078125
1724854956689888500,3.596888427734375,0.0883331298828125,1.2066192626953125,0.15155029296875
1724854956699940400,3.6069404296875,0.2003021240234375,1.047149658203125,0.1478424072265625
1724854956709992700,3.61699267578125,0.2933502197265625,0.9088592529296875,0.2169342041015625
1724854956720044500,3.62704443359375,0.3578948974609375,0.8621978759765625,0.310699462890625
1724854956730096600,3.6370966796875,0.345947265625,0.77508544921875,0.4046478271484375
1724854956740148500,3.6471484375,0.3117828369140625,0.7405242919921875,0.453948974609375
1724854956750200600,3.65720068359375,0.344757080078125,0.7607879638671875,0.4385528564453125
1724854956760252400,3.66725244140625,0.4480438232421875,0.662322998046875,0.3500213623046875
1724854956770304500,3.677304443359375,0.428436279296875,0.690338134765625,0.2803497314453125
1724854956780356600,3.687356689453125,0.3834075927734375,0.796234130859375,0.28021240234375
1724854956790408700,3.69740869140625,0.3029937744140625,0.72802734375,0.2798614501953125
1724854956800459500,3.70745947265625,0.3538970947265625,0.774261474609375,0.338165283203125
1724854956810511600,3.71751171875,0.1939849853515625,0.7387542724609375,0.318115234375
1724854956820563500,3.7275634765625,0.1656646728515625,0.7470855712890625,0.2710113525390625
1724854956830615600,3.737615478515625,0.160125732421875,0.802093505859375,0.18914794921875
1724854956840667400,3.74766748046875,0.1674652099609375,0.8390350341796875,0.07415771484375
1724854956850719500,3.757719482421875,0.2147674560546875,0.9091033935546875,-0.0139007568359375
1724854956860771600,3.767771484375,0.2230987548828125,0.9208831787109375,-0.019683837890625
1724854956870823700,3.77782373046875,0.2540740966796875,0.9607696533203125,-0.0105743408203125
1724854956880875500,3.78787548828125,0.1304473876953125,1.016845703125,0.00689697265625
1724854956890926600,3.797926513671875,0.08544921875,1.0515899658203125,0.1181640625
1724854956900978700,3.807978759765625,0.0677032470703125,1.0630340576171875,0.15423583984375
1724854956911030500,3.818030517578125,0.07489013671875,1.053741455078125,0.182586669921875
1724854956921082600,3.82808251953125,0.1516265869140625,1.0560302734375,0.17498779296875
1724854956931134500,3.838134521484375,0.214813232421875,1.0430145263671875,0.20465087890625
1724854956941186300,3.848186279296875,0.2480621337890625,1.0313262939453125,0.22894287109375
1724854956951238700,3.85823876953125,0.25689697265625,1.0193939208984375,0.2945098876953125
1724854956961290500,3.86829052734375,0.2462158203125,1.011199951171875,0.301300048828125
1724854956971342600,3.878342529296875,0.253814697265625,1.0193634033203125,0.295562744140625
1724854956981394400,3.88839453125,0.262420654296875,1.040130615234375,0.2641448974609375
1724854956991445500,3.898445556640625,0.2573089599609375,1.0438995361328125,0.23876953125
1724854957001497600,3.90849755859375,0.247314453125,1.020111083984375,0.227935791015625
1724854957011549400,3.918549560546875,0.2298583984375,0.97711181640625,0.2493438720703125
1724854957021601500,3.9286015625,0.2157745361328125,0.9300994873046875,0.27752685546875
1724854957031653600,3.938653564453125,0.198211669921875,0.8897705078125,0.310272216796875
1724854957041705700,3.948705810546875,0.1788787841796875,0.8701934814453125,0.3397674560546875
1724854957051757600,3.958757568359375,0.1644287109375,0.85931396484375,0.34326171875
1724854957061809700,3.9688095703125,0.157867431640625,0.870849609375,0.3189544677734375
1724854957071861500,3.978861572265625,0.140228271484375,0.886444091796875,0.282196044921875
1724854957081913300,3.988913330078125,0.112335205078125,0.899993896484375,0.2609710693359375
1724854957091964700,3.998964599609375,0.1044921875,0.913787841796875,0.2503662109375
1724854957102016800,4.009016845703125,0.113525390625,0.9128265380859375,0.2439117431640625
1724854957112068600,4.019068603515625,0.092559814453125,0.8970947265625,0.2237091064453125
1724854957122120700,4.02912060546875,0.111724853515625,0.9263763427734375,0.175689697265625
1724854957132172500,4.039172607421875,0.1389312744140625,0.958740234375,0.1619415283203125
1724854957142224600,4.049224609375,0.161285400390625,0.9756317138671875,0.181610107421875
1724854957152276500,4.0592763671875,0.1876220703125,0.994659423828125,0.1941070556640625
1724854957162328800,4.069328857421875,0.2203521728515625,1.0013275146484375,0.2131500244140625
1724854957172380700,4.079380615234375,0.24212646484375,0.9975738525390625,0.233673095703125
1724854957182432800,4.089432861328125,0.247589111328125,0.9727935791015625,0.2475128173828125
1724854957192483600,4.099483642578125,0.2625579833984375,0.957977294921875,0.250213623046875
1724854957202535700,4.10953564453125,0.27557373046875,0.9519195556640625,0.2394561767578125
1724854957212587500,4.11958740234375,0.28070068359375,0.9506072998046875,0.24090576171875
1724854957222639600,4.1296396484375,0.2758331298828125,0.957427978515625,0.2486419677734375
1724854957232691500,4.13969140625,0.2723846435546875,0.9725799560546875,0.2496795654296875
1724854957242743800,4.149743896484375,0.2721405029296875,0.9812774658203125,0.2282867431640625
1724854957252795600,4.159795654296875,0.26885986328125,0.96026611328125,0.2233734130859375
1724854957262847700,4.16984765625,0.242034912109375,0.9588623046875,0.2273101806640625
1724854957272899600,4.179899658203125,0.220733642578125,0.9326324462890625,0.266754150390625
1724854957282951700,4.18995166015625,0.22802734375,0.9395751953125,0.25189208984375
1724854957293003500,4.20000341796875,0.24755859375,0.93341064453125,0.2781524658203125
1724854957303054600,4.2100546875,0.24713134765625,0.962738037109375,0.30157470703125
1724854957313106400,4.2201064453125,0.2598419189453125,1.008148193359375,0.2891693115234375
1724854957323158500,4.230158447265625,0.2508697509765625,0.992645263671875,0.3303680419921875
1724854957333210600,4.240210693359375,0.2358551025390625,0.958343505859375,0.3526611328125
1724854957343262700,4.2502626953125,0.28448486328125,0.943695068359375,0.3243255615234375
1724854957353314600,4.260314453125,0.340850830078125,0.94415283203125,0.2934417724609375
1724854957363366700,4.27036669921875,0.34478759765625,0.9294586181640625,0.31549072265625
1724854957373418500,4.28041845703125,0.3276824951171875,0.9763336181640625,0.282073974609375
1724854957383470600,4.290470703125,0.341064453125,1.039520263671875,0.238311767578125
1724854957393522700,4.300522705078125,0.2968597412109375,1.037017822265625,0.2418212890625
1724854957403573500,4.310573486328125,0.2589874267578125,1.04388427734375,0.227294921875
1724854957413625600,4.32062548828125,0.2907257080078125,0.9875640869140625,0.2620086669921875
1724854957423677700,4.330677734375,0.3704986572265625,0.948638916015625,0.29400634765625
1724854957433729500,4.3407294921875,0.406036376953125,0.8962249755859375,0.3410491943359375
1724854957443781600,4.35078173828125,0.3952178955078125,0.845184326171875,0.4084625244140625
1724854957453833500,4.36083349609375,0.3935089111328125,0.885833740234375,0.398345947265625
1724854957463885600,4.370885498046875,0.374969482421875,0.9229583740234375,0.353302001953125
1724854957473937400,4.3809375,0.472747802734375,0.9390716552734375,0.2768707275390625
1724854957483989800,4.39098974609375,0.5018310546875,0.9644012451171875,0.23236083984375
1724854957494040800,4.401040771484375,0.3962249755859375,0.962310791015625,0.256500244140625
1724854957504092700,4.4110927734375,0.19732666015625,0.9083251953125,0.26800537109375
1724854957514144800,4.421144775390625,0.1305999755859375,0.8344268798828125,0.381591796875
1724854957524196600,4.431196533203125,0.201568603515625,0.8456268310546875,0.489227294921875
1724854957534248700,4.441248779296875,0.3773651123046875,0.7887115478515625,0.5377349853515625
1724854957544300500,4.451300537109375,0.4884033203125,0.8299102783203125,0.5216217041015625
1724854957554352600,4.4613525390625,0.4676666259765625,0.8311920166015625,0.45538330078125
1724854957564404700,4.47140478515625,0.4038543701171875,0.8472137451171875,0.4135589599609375
1724854957574456600,4.48145654296875,0.35614013671875,0.864013671875,0.37744140625
1724854957584508700,4.4915087890625,0.3833465576171875,0.812957763671875,0.3912506103515625
1724854957594559700,4.501559814453125,0.383575439453125,0.8157806396484375,0.4492340087890625
1724854957604611600,4.511611572265625,0.41357421875,0.7869720458984375,0.53955078125
1724854957614663700,4.52166357421875,0.453643798828125,0.7513885498046875,0.6207733154296875
1724854957624715500,4.531715576171875,0.439544677734375,0.698822021484375,0.6683807373046875
1724854957634767600,4.541767578125,0.406005859375,0.672027587890625,0.7074432373046875
1724854957644819700,4.55181982421875,0.375823974609375,0.7054595947265625,0.6938934326171875
1724854957654871800,4.561871826171875,0.388397216796875,0.7245635986328125,0.606689453125
1724854957664923600,4.571923583984375,0.44586181640625,0.688201904296875,0.5709381103515625
1724854957674975700,4.581975830078125,0.464752197265625,0.7142181396484375,0.5496826171875
1724854957685027600,4.592027587890625,0.491424560546875,0.703369140625,0.5579376220703125
1724854957695078700,4.60207861328125,0.494415283203125,0.757720947265625,0.63916015625
1724854957705130500,4.612130615234375,0.5051727294921875,0.74615478515625,0.6402587890625
1724854957715182600,4.6221826171875,0.520721435546875,0.7186126708984375,0.6807861328125
1724854957725234400,4.632234375,0.4969635009765625,0.6934814453125,0.714691162109375
1724854957735286800,4.642286865234375,0.5315093994140625,0.6528167724609375,0.7105560302734375
1724854957745338600,4.652338623046875,0.5110015869140625,0.679931640625,0.7928009033203125
1724854957755390700,4.662390625,0.50244140625,0.704376220703125,0.788848876953125
1724854957765442600,4.672442626953125,0.538543701171875,0.6565704345703125,0.8136444091796875
1724854957775494700,4.68249462890625,0.49530029296875,0.64422607421875,0.7602691650390625
1724854957785546500,4.69254638671875,0.5156402587890625,0.57220458984375,0.7592620849609375
1724854957795597600,4.70259765625,0.4553985595703125,0.5199737548828125,0.74127197265625
1724854957805649400,4.7126494140625,0.439056396484375,0.5110015869140625,0.7232666015625
1724854957815701800,4.72270166015625,0.4238128662109375,0.53271484375,0.72711181640625
1724854957825753600,4.732753662109375,0.4415130615234375,0.5139312744140625,0.727630615234375
1724854957835805700,4.7428056640625,0.434112548828125,0.496185302734375,0.7271881103515625
1724854957845857500,4.752857421875,0.425079345703125,0.50439453125,0.7248077392578125
1724854957855909600,4.76290966796875,0.4407806396484375,0.4605865478515625,0.7135772705078125
1724854957865961500,4.77296142578125,0.4266510009765625,0.4671630859375,0.70745849609375
1724854957876013600,4.783013671875,0.4453582763671875,0.4263763427734375,0.6719207763671875
1724854957886065700,4.793065673828125,0.4969482421875,0.4026336669921875,0.610626220703125
1724854957896116700,4.80311669921875,0.4966888427734375,0.3838958740234375,0.669342041015625
1724854957906168600,4.81316845703125,0.467071533203125,0.373260498046875,0.671630859375
1724854957916220700,4.823220703125,0.4427947998046875,0.317230224609375,0.7206573486328125
1724854957926272500,4.8332724609375,0.452789306640625,0.32647705078125,0.7126312255859375
1724854957936324600,4.84332470703125,0.478302001953125,0.3096466064453125,0.724517822265625
1724854957946376400,4.85337646484375,0.48468017578125,0.342559814453125,0.6899566650390625
1724854957956428500,4.863428466796875,0.454010009765625,0.351654052734375,0.7420654296875
1724854957966480600,4.873480712890625,0.4909515380859375,0.32525634765625,0.6639404296875
1724854957976532700,4.88353271484375,0.482666015625,0.2729949951171875,0.6881256103515625
1724854957986584600,4.89358447265625,0.478790283203125,0.3196563720703125,0.684906005859375
1724854957996635600,4.9036357421875,0.465911865234375,0.3818359375,0.67718505859375
1724854958006687700,4.913687744140625,0.4650115966796875,0.4076385498046875,0.6594085693359375
1724854958016739600,4.923739501953125,0.483154296875,0.4501495361328125,0.6245269775390625
1724854958026791700,4.933791748046875,0.50146484375,0.4633331298828125,0.606201171875
1724854958036843500,4.943843505859375,0.49761962890625,0.452911376953125,0.600433349609375
1724854958046895600,4.9538955078125,0.5030364990234375,0.4153900146484375,0.6100921630859375
1724854958056947700,4.96394775390625,0.5275726318359375,0.38677978515625,0.644256591796875
1724854958066999600,4.97399951171875,0.5286865234375,0.38092041015625,0.6842193603515625
1724854958077051600,4.9840517578125,0.5055999755859375,0.3903656005859375,0.653411865234375
1724854958087102700,4.994102783203125,0.5643310546875,0.3917388916015625,0.653900146484375
1724854958097153800,5.00415380859375,0.577484130859375,0.3948822021484375,0.6233062744140625
1724854958107206000,5.014205810546875,0.55322265625,0.3718109130859375,0.621429443359375
1724854958117257700,5.0242578125,0.567962646484375,0.3936309814453125,0.613433837890625
1724854958127309800,5.034309814453125,0.54815673828125,0.322113037109375,0.6653900146484375
1724854958137361700,5.044361572265625,0.5550537109375,0.3390960693359375,0.6770477294921875
1724854958147414000,5.0544140625,0.546417236328125,0.2645263671875,0.73046875
1724854958157465900,5.0644658203125,0.5598602294921875,0.26678466796875,0.74969482421875
1724854958167518000,5.07451806640625,0.5750579833984375,0.25634765625,0.7754364013671875
1724854958177569800,5.08456982421875,0.5457916259765625,0.2503814697265625,0.8053436279296875
1724854958187620900,5.094620849609375,0.5319061279296875,0.2588653564453125,0.8107147216796875
1724854958197673000,5.1046728515625,0.5166015625,0.262176513671875,0.7922821044921875
1724854958207724800,5.114724853515625,0.5563812255859375,0.2733612060546875,0.774078369140625
1724854958217777000,5.12477685546875,0.621124267578125,0.309722900390625,0.7957611083984375
1724854958227829000,5.1348291015625,0.688812255859375,0.4105377197265625,0.854095458984375
1724854958237880800,5.144880859375,0.7039031982421875,0.5225372314453125,0.8991546630859375
1724854958247933000,5.154932861328125,0.626068115234375,0.528106689453125,0.8934783935546875
1724854958257984800,5.16498486328125,0.5813140869140625,0.451507568359375,0.8282318115234375
1724854958268036900,5.175036865234375,0.62432861328125,0.3614501953125,0.73577880859375
1724854958278088000,5.185087890625,0.6292877197265625,0.281494140625,0.685333251953125
1724854958288139800,5.195139892578125,0.5825347900390625,0.2236785888671875,0.6941986083984375
1724854958298192000,5.20519189453125,0.5068511962890625,0.1948089599609375,0.7321319580078125
1724854958308243700,5.21524365234375,0.46881103515625,0.1584625244140625,0.7875518798828125
1724854958318296000,5.225296142578125,0.477264404296875,0.1713714599609375,0.7810211181640625
1724854958328348000,5.235347900390625,0.5463409423828125,0.1890106201171875,0.8232269287109375
1724854958338400000,5.24539990234375,0.5434417724609375,0.22552490234375,0.86199951171875
1724854958348451800,5.255451904296875,0.5518035888671875,0.27313232421875,0.8801116943359375
1724854958358504000,5.26550390625,0.556610107421875,0.26519775390625,0.8658447265625
1724854958368555800,5.2755556640625,0.5855712890625,0.2638702392578125,0.7978057861328125
1724854958378606800,5.28560693359375,0.6297454833984375,0.264312744140625,0.7242431640625
1724854958388658700,5.29565869140625,0.5759124755859375,0.2872467041015625,0.6934814453125
1724854958398711000,5.3057109375,0.5953216552734375,0.24920654296875,0.684173583984375
1724854958408763000,5.315762939453125,0.6279296875,0.24053955078125,0.649200439453125
1724854958418815000,5.32581494140625,0.6424407958984375,0.2336883544921875,0.6815185546875
1724854958428866800,5.33586669921875,0.6281890869140625,0.19110107421875,0.6739654541015625
1724854958438919000,5.3459189453125,0.64593505859375,0.2369842529296875,0.686248779296875
1724854958448970800,5.355970703125,0.6409149169921875,0.2499237060546875,0.7161102294921875
1724854958459022800,5.36602294921875,0.642486572265625,0.2796478271484375,0.7354278564453125
1724854958469073700,5.37607373046875,0.4972076416015625,0.401580810546875,0.731414794921875
1724854958479126000,5.3861259765625,0.56390380859375,0.367279052734375,0.775543212890625
1724854958489177900,5.396177734375,0.557403564453125,0.3489227294921875,0.743499755859375
1724854958499230000,5.40622998046875,0.5626678466796875,0.3871612548828125,0.703765869140625
1724854958509281800,5.41628173828125,0.59356689453125,0.39447021484375,0.6954498291015625
1724854958519334000,5.426333984375,0.5943145751953125,0.42974853515625,0.708892822265625
1724854958529385700,5.4363857421875,0.5975189208984375,0.43585205078125,0.7173919677734375
1724854958539437800,5.446437744140625,0.624114990234375,0.41754150390625,0.709686279296875
1724854958549490000,5.456489990234375,0.6424102783203125,0.4170379638671875,0.696044921875
1724854958559542000,5.4665419921875,0.6466522216796875,0.422821044921875,0.6089630126953125
1724854958569592800,5.4765927734375,0.6230621337890625,0.3824310302734375,0.534820556640625
1724854958579645000,5.48664501953125,0.54931640625,0.300140380859375,0.506256103515625
1724854958589696800,5.49669677734375,0.53204345703125,0.2656707763671875,0.5156097412109375
1724854958599748900,5.506748779296875,0.5176849365234375,0.268829345703125,0.546173095703125
1724854958609800700,5.51680078125,0.5525360107421875,0.2950439453125,0.553131103515625
1724854958619852800,5.526852783203125,0.614898681640625,0.3279266357421875,0.5396575927734375
1724854958629905000,5.53690478515625,0.7111968994140625,0.2941436767578125,0.6186676025390625
1724854958639957000,5.54695703125,0.9328460693359375,0.336822509765625,0.7793731689453125
1724854958650008000,5.557008056640625,1.0457916259765625,0.4667816162109375,0.920684814453125
1724854958660060000,5.567059814453125,0.8853912353515625,0.54180908203125,0.9496002197265625
1724854958670112000,5.577112060546875,0.8033447265625,0.4822845458984375,0.8333587646484375
1724854958680163800,5.587163818359375,0.8391876220703125,0.4923553466796875,0.8233795166015625
1724854958690216000,5.5972158203125,0.7254791259765625,0.2682952880859375,0.82000732421875
1724854958700267800,5.607267822265625,0.53399658203125,0.0153350830078125,0.7773284912109375
1724854958710319900,5.61731982421875,0.4261016845703125,-0.1476287841796875,0.755218505859375
1724854958720372000,5.6273720703125,0.405029296875,-0.1283111572265625,0.616668701171875
1724854958730423800,5.637423828125,0.5683746337890625,0.073486328125,0.5348968505859375
1724854958740475000,5.647474853515625,0.501922607421875,0.28643798828125,0.4999847412109375
1724854958750527000,5.65752685546875,0.6244354248046875,0.3123779296875,0.5373382568359375
1724854958760578800,5.667578857421875,0.7381439208984375,0.293609619140625,0.646697998046875
1724854958770631000,5.677630859375,0.827545166015625,0.3438262939453125,0.734771728515625
1724854958780682800,5.687682861328125,0.845947265625,0.2241973876953125,0.85052490234375
1724854958790734800,5.69773486328125,0.7638702392578125,0.1220703125,0.87786865234375
1724854958800787000,5.707786865234375,0.7319488525390625,0.1537933349609375,0.9026947021484375
1724854958810839000,5.717839111328125,0.7506561279296875,0.2515106201171875,0.8706817626953125
1724854958820891000,5.727890869140625,0.686981201171875,0.2604827880859375,0.7788238525390625
1724854958830942000,5.73794189453125,0.677154541015625,0.130584716796875,0.64093017578125
1724854958840993800,5.747993896484375,0.572479248046875,0.155853271484375,0.5445098876953125
1724854958851046000,5.7580458984375,0.5850982666015625,0.1746063232421875,0.546600341796875
1724854958861097700,5.76809765625,0.6988525390625,0.2165985107421875,0.5838470458984375
1724854958871149800,5.77814990234375,0.770477294921875,0.2407989501953125,0.6089019775390625
1724854958881202000,5.788201904296875,0.7955780029296875,0.22381591796875,0.6634063720703125
1724854958891254000,5.79825390625,0.7995452880859375,0.2117156982421875,0.6649169921875
1724854958901305900,5.808305908203125,0.781951904296875,0.203338623046875,0.625732421875
1724854958911358000,5.81835791015625,0.7591400146484375,0.2158203125,0.5882720947265625
1724854958921408800,5.82840869140625,0.755126953125,0.232818603515625,0.5646514892578125
1724854958931460900,5.8384609375,0.7518157958984375,0.24725341796875,0.5492095947265625
1724854958941512700,5.8485126953125,0.744476318359375,0.250152587890625,0.5622406005859375
1724854958951564800,5.858564697265625,0.707489013671875,0.227386474609375,0.5658111572265625
1724854958961616600,5.86861669921875,0.704803466796875,0.205047607421875,0.5777130126953125
1724854958971669000,5.8786689453125,0.688873291015625,0.1806793212890625,0.606719970703125
1724854958981720800,5.888720947265625,0.6317291259765625,0.1847686767578125,0.5572967529296875
1724854958991773000,5.89877294921875,0.70172119140625,0.21929931640625,0.55303955078125
1724854959001824800,5.90882470703125,0.697784423828125,0.2376556396484375,0.5558624267578125
1724854959011875800,5.918875732421875,0.7714996337890625,0.2448272705078125,0.6174774169921875
1724854959021928000,5.928927978515625,0.7841033935546875,0.2421875,0.69293212890625
1724854959031979800,5.938979736328125,0.7744140625,0.2318115234375,0.71197509765625
1724854959042031900,5.949031982421875,0.7110748291015625,0.2371368408203125,0.6671600341796875
1724854959052084000,5.959083984375,0.6826629638671875,0.1634368896484375,0.630859375
1724854959062135800,5.9691357421875,0.70428466796875,0.114837646484375,0.6261444091796875
1724854959072188000,5.97918798828125,0.7129974365234375,0.098876953125,0.64031982421875
1724854959082239700,5.98923974609375,0.7291717529296875,0.0986785888671875,0.63018798828125
1724854959092290600,5.99929052734375,0.725006103515625,0.096221923828125,0.591583251953125
1724854959102343000,6.009343017578125,0.71875,0.101348876953125,0.5587310791015625
1724854959112394800,6.019394775390625,0.7384796142578125,0.1027679443359375,0.59576416015625
1724854959122446800,6.02944677734375,0.7985687255859375,0.1297149658203125,0.6544189453125
1724854959132498700,6.039498779296875,0.8244476318359375,0.14544677734375,0.6678619384765625
1724854959142550800,6.04955078125,0.7814483642578125,0.1333465576171875,0.66119384765625
1724854959152602600,6.0596025390625,0.710052490234375,0.0948333740234375,0.6112823486328125
1724854959162654700,6.06965478515625,0.6814422607421875,0.0283355712890625,0.605865478515625
1724854959172705500,6.07970556640625,0.675079345703125,0.0067138671875,0.649505615234375
1724854959182758000,6.0897578125,0.6510009765625,0.042755126953125,0.6133575439453125
1724854959192809700,6.099809814453125,0.697998046875,0.06640625,0.5620574951171875
1724854959202861800,6.10986181640625,0.7332763671875,0.0611724853515625,0.5564117431640625
1724854959212913700,6.11991357421875,0.77569580078125,0.029449462890625,0.6252288818359375
1724854959222965800,6.1299658203125,0.7751617431640625,0.042144775390625,0.7059326171875
1724854959233017600,6.140017578125,0.7050628662109375,0.12786865234375,0.67144775390625
1724854959243069700,6.150069580078125,0.686981201171875,0.19305419921875,0.5934906005859375
1724854959253120800,6.160120849609375,0.7117156982421875,0.20611572265625,0.62335205078125
1724854959263172900,6.1701728515625,0.7536773681640625,0.1973724365234375,0.696044921875
1724854959273224700,6.180224609375,0.7524261474609375,0.1617889404296875,0.7360382080078125
1724854959283276800,6.19027685546875,0.7316741943359375,0.1482696533203125,0.70654296875
1724854959293328600,6.20032861328125,0.70697021484375,0.151336669921875,0.646942138671875
1724854959303380700,6.210380615234375,0.7372894287109375,0.1198272705078125,0.6320648193359375
1724854959313432600,6.2204326171875,0.739288330078125,0.0858917236328125,0.672393798828125
1724854959323484700,6.230484619140625,0.725433349609375,0.099090576171875,0.6868133544921875
1724854959333535700,6.24053564453125,0.7014923095703125,0.101104736328125,0.65386962890625
1724854959343587600,6.250587646484375,0.70220947265625,0.06732177734375,0.6309814453125
1724854959353640000,6.260639892578125,0.71588134765625,0.0458526611328125,0.657684326171875
1724854959363691800,6.27069189453125,0.7194366455078125,0.0598297119140625,0.680908203125
1724854959373743900,6.280743896484375,0.699737548828125,0.092529296875,0.68109130859375
1724854959383795700,6.290795654296875,0.678131103515625,0.1196136474609375,0.6941986083984375
1724854959393847800,6.300847900390625,0.6696014404296875,0.14111328125,0.6812896728515625
1724854959403899600,6.310899658203125,0.6515045166015625,0.132781982421875,0.66485595703125
1724854959413951700,6.32095166015625,0.64886474609375,0.1060028076171875,0.6461944580078125
1724854959424002600,6.33100244140625,0.6569976806640625,0.0800933837890625,0.677490234375
1724854959434055000,6.341054931640625,0.66796875,0.0912017822265625,0.706024169921875
1724854959444106800,6.351106689453125,0.68096923828125,0.1113739013671875,0.7090301513671875
1724854959454158800,6.361158935546875,0.67474365234375,0.1178131103515625,0.714813232421875
1724854959464210700,6.371210693359375,0.6450042724609375,0.1282806396484375,0.7098846435546875
1724854959474262800,6.3812626953125,0.646331787109375,0.144561767578125,0.72601318359375
1724854959484314600,6.391314697265625,0.65087890625,0.1795196533203125,0.741302490234375
1724854959494365700,6.40136572265625,0.646148681640625,0.2174530029296875,0.723358154296875
1724854959504417500,6.41141748046875,0.6210174560546875,0.216583251953125,0.693389892578125
1724854959514470000,6.421469970703125,0.60400390625,0.17388916015625,0.7164154052734375
1724854959524521700,6.431521728515625,0.63604736328125,0.12957763671875,0.76025390625
1724854959534573800,6.44157373046875,0.6536102294921875,0.1226806640625,0.7581329345703125
1724854959544625700,6.451625732421875,0.6225128173828125,0.137237548828125,0.72662353515625
1724854959554677800,6.461677734375,0.60211181640625,0.144927978515625,0.723297119140625
1724854959564729600,6.4717294921875,0.564208984375,0.157501220703125,0.7212371826171875
1724854959574781700,6.48178173828125,0.629913330078125,0.1695709228515625,0.7315673828125
1724854959584832800,6.491832763671875,0.6170806884765625,0.1809844970703125,0.740203857421875
1724854959594884600,6.501884521484375,0.597412109375,0.2187347412109375,0.7149200439453125
1724854959604937000,6.51193701171875,0.6128082275390625,0.2479248046875,0.721282958984375
1724854959614988800,6.52198876953125,0.60260009765625,0.273773193359375,0.7330169677734375
1724854959625041000,6.532041015625,0.5490264892578125,0.27978515625,0.7797698974609375
1724854959635092700,6.5420927734375,0.5211334228515625,0.3003692626953125,0.7848968505859375
1724854959645144600,6.55214453125,0.600006103515625,0.3288421630859375,0.7528228759765625
1724854959655196700,6.56219677734375,0.611785888671875,0.311981201171875,0.720245361328125
1724854959665247700,6.572247802734375,0.581939697265625,0.2551116943359375,0.7732086181640625
1724854959675299600,6.582299560546875,0.5892791748046875,0.2163848876953125,0.824310302734375
1724854959685352000,6.59235205078125,0.60137939453125,0.22613525390625,0.8064117431640625
1724854959695403800,6.60240380859375,0.588348388671875,0.2467803955078125,0.7680816650390625
1724854959705455900,6.612455810546875,0.5707244873046875,0.2676239013671875,0.760162353515625
1724854959715507700,6.6225078125,0.5632476806640625,0.2771148681640625,0.743927001953125
1724854959725559800,6.632559814453125,0.6167755126953125,0.262115478515625,0.751617431640625
1724854959735611600,6.642611572265625,0.6212615966796875,0.2313079833984375,0.780181884765625
1724854959745662700,6.652662841796875,0.5998077392578125,0.2124481201171875,0.8110809326171875
1724854959755714600,6.662714599609375,0.5665435791015625,0.2060699462890625,0.83111572265625
1724854959765767000,6.672766845703125,0.526824951171875,0.25115966796875,0.838134765625
1724854959775818800,6.68281884765625,0.50457763671875,0.310791015625,0.8181915283203125
1724854959785870800,6.692870849609375,0.5295562744140625,0.326080322265625,0.817840576171875
1724854959795922700,6.702922607421875,0.5366668701171875,0.3375244140625,0.840789794921875
1724854959805974800,6.712974853515625,0.5830841064453125,0.339141845703125,0.8764495849609375
1724854959816026600,6.723026611328125,0.610687255859375,0.3225860595703125,0.8786773681640625
1724854959826077700,6.73307763671875,0.5529327392578125,0.328216552734375,0.8491668701171875
1724854959836129800,6.7431298828125,0.50537109375,0.337921142578125,0.8251800537109375
1724854959846181600,6.753181640625,0.5573883056640625,0.308685302734375,0.8270263671875
1724854959856233700,6.763233642578125,0.51385498046875,0.3308258056640625,0.813446044921875
1724854959866285800,6.773285888671875,0.4737396240234375,0.3977508544921875,0.776763916015625
1724854959876337700,6.783337646484375,0.5676727294921875,0.427398681640625,0.767669677734375
1724854959886389800,6.7933896484375,0.53118896484375,0.4555511474609375,0.7688140869140625
1724854959896441600,6.803441650390625,0.4333953857421875,0.50048828125,0.73211669921875
1724854959906492700,6.81349267578125,0.547332763671875,0.4667816162109375,0.7306060791015625
1724854959916544800,6.823544677734375,0.503387451171875,0.436737060546875,0.6972198486328125
1724854959926596600,6.8335966796875,0.40179443359375,0.4413604736328125,0.639862060546875
1724854959936649000,6.84364892578125,0.5267791748046875,0.4239044189453125,0.6323089599609375
1724854959946700800,6.85370068359375,0.537384033203125,0.42724609375,0.63916015625
1724854959956753000,6.8637529296875,0.4706573486328125,0.4631805419921875,0.64971923828125
1724854959966804700,6.8738046875,0.405426025390625,0.5137176513671875,0.6413726806640625
1724854959976856800,6.88385693359375,0.568450927734375,0.494873046875,0.679473876953125
1724854959986907600,6.89390771484375,0.539459228515625,0.472412109375,0.6634063720703125
1724854959996959700,6.903959716796875,0.483123779296875,0.47479248046875,0.647857666015625
1724854960007011600,6.914011474609375,0.4644317626953125,0.4912261962890625,0.6192626953125
1724854960017064000,6.92406396484375,0.5746002197265625,0.469207763671875,0.6230621337890625
1724854960027115800,6.93411572265625,0.520965576171875,0.4862518310546875,0.6183624267578125
1724854960037167900,6.94416796875,0.5099945068359375,0.486297607421875,0.6320037841796875
1724854960047219700,6.9542197265625,0.5251312255859375,0.45611572265625,0.67254638671875
1724854960057271800,6.964271728515625,0.4796142578125,0.4335479736328125,0.6867828369140625
1724854960067322600,6.974322509765625,0.47967529296875,0.445556640625,0.6570892333984375
1724854960077374700,6.984374755859375,0.4954833984375,0.4859161376953125,0.639923095703125
1724854960087426600,6.994426513671875,0.4727783203125,0.540008544921875,0.6105804443359375
1724854960097479700,7.004479736328125,0.45526123046875,0.6269378662109375,0.610931396484375
1724854960107531500,7.014531494140625,0.4664306640625,0.714202880859375,0.6292877197265625
1724854960117583600,7.02458349609375,0.476470947265625,0.73956298828125,0.665557861328125
1724854960127635500,7.034635498046875,0.474822998046875,0.7430572509765625,0.691864013671875
1724854960137687600,7.0446875,0.502593994140625,0.744476318359375,0.69256591796875
1724854960147738400,7.05473828125,0.4964752197265625,0.7150421142578125,0.709442138671875
1724854960157790500,7.06479052734375,0.5045623779296875,0.6689453125,0.726348876953125
1724854960167842600,7.074842529296875,0.5035247802734375,0.6320953369140625,0.7230987548828125
1724854960177894700,7.084894775390625,0.4593658447265625,0.613128662109375,0.7165985107421875
1724854960187946500,7.094946533203125,0.442596435546875,0.6132965087890625,0.67633056640625
1724854960197998600,7.10499853515625,0.43707275390625,0.6183013916015625,0.6209259033203125
1724854960208050400,7.115050537109375,0.435455322265625,0.6270904541015625,0.586334228515625
1724854960218102500,7.1251025390625,0.4414520263671875,0.6547698974609375,0.5805511474609375
1724854960228153300,7.1351533203125,0.4535369873046875,0.696014404296875,0.617156982421875
1724854960238205400,7.145205322265625,0.4519500732421875,0.7664642333984375,0.65960693359375
1724854960248257500,7.155257568359375,0.4618377685546875,0.8011932373046875,0.681549072265625
1724854960258309600,7.1653095703125,0.461883544921875,0.763702392578125,0.673675537109375
1724854960268361500,7.175361572265625,0.4453887939453125,0.6919097900390625,0.6514739990234375
1724854960278413600,7.18541357421875,0.40924072265625,0.6238861083984375,0.6377716064453125
1724854960288465400,7.19546533203125,0.359039306640625,0.589813232421875,0.6160736083984375
1724854960298517500,7.205517578125,0.374481201171875,0.549713134765625,0.5885009765625
1724854960308568600,7.215568603515625,0.3624420166015625,0.56048583984375,0.542633056640625
1724854960318620400,7.225620361328125,0.3594207763671875,0.5902862548828125,0.512664794921875
1724854960328672800,7.2356728515625,0.3672637939453125,0.6429595947265625,0.523284912109375
1724854960338724600,7.245724609375,0.3979949951171875,0.7216644287109375,0.566986083984375
1724854960348776700,7.255776611328125,0.475677490234375,0.79522705078125,0.6656036376953125
1724854960358828500,7.26582861328125,0.52349853515625,0.8634796142578125,0.771148681640625
1724854960368880400,7.27588037109375,0.55029296875,0.8672332763671875,0.8124847412109375
1724854960378932500,7.285932373046875,0.56561279296875,0.775390625,0.829193115234375
1724854960388984300,7.295984375,0.5080413818359375,0.68475341796875,0.8049468994140625
1724854960399035400,7.306035400390625,0.4661865234375,0.5755157470703125,0.77752685546875
1724854960409087500,7.31608740234375,0.3307952880859375,0.52490234375,0.69146728515625
1724854960419139600,7.3261396484375,0.295379638671875,0.4527740478515625,0.56036376953125
1724854960429191700,7.336191650390625,0.3199615478515625,0.475341796875,0.461212158203125
1724854960439243500,7.346243408203125,0.359832763671875,0.6040496826171875,0.43792724609375
1724854960449295600,7.356295654296875,0.414306640625,0.7693634033203125,0.503326416015625
1724854960459347500,7.366347412109375,0.445648193359375,0.9254608154296875,0.62322998046875
1724854960469398500,7.3763984375,0.4544219970703125,0.97564697265625,0.704498291015625
1724854960479450400,7.386450439453125,0.4605865478515625,0.929046630859375,0.6967926025390625
1724854960489502500,7.39650244140625,0.46221923828125,0.843109130859375,0.591094970703125
1724854960499554600,7.406554443359375,0.4455108642578125,0.733734130859375,0.50750732421875
1724854960509606700,7.416606689453125,0.390716552734375,0.66387939453125,0.4177093505859375
1724854960519658500,7.426658447265625,0.3323211669921875,0.631195068359375,0.351287841796875
1724854960529710600,7.436710693359375,0.34661865234375,0.618194580078125,0.334228515625
1724854960539762400,7.446762451171875,0.329193115234375,0.6715850830078125,0.3953399658203125
1724854960549814500,7.456814453125,0.315704345703125,0.7376251220703125,0.45440673828125
1724854960559865600,7.466865478515625,0.2975616455078125,0.7890625,0.489288330078125
1724854960569917400,7.47691748046875,0.281768798828125,0.80078125,0.54425048828125
1724854960579969500,7.486969482421875,0.265960693359375,0.76708984375,0.597625732421875
1724854960590021600,7.497021728515625,0.250091552734375,0.7500762939453125,0.6478118896484375
1724854960600073500,7.507073486328125,0.25628662109375,0.7605438232421875,0.6703643798828125
1724854960610125600,7.51712548828125,0.283111572265625,0.7724456787109375,0.64141845703125
1724854960620177400,7.527177490234375,0.2905731201171875,0.746246337890625,0.6070098876953125
1724854960630229500,7.5372294921875,0.3129119873046875,0.7764739990234375,0.50946044921875
1724854960640280600,7.547280517578125,0.346221923828125,0.7734832763671875,0.4889373779296875
1724854960650332400,7.55733251953125,0.3941192626953125,0.787841796875,0.490936279296875
1724854960660384800,7.567384765625,0.43634033203125,0.797576904296875,0.5389556884765625
1724854960670436600,7.5774365234375,0.44793701171875,0.8087005615234375,0.5949554443359375
1724854960680488700,7.58748876953125,0.4088897705078125,0.717987060546875,0.6548309326171875
1724854960690540500,7.59754052734375,0.3357696533203125,0.682586669921875,0.65655517578125
1724854960700592600,7.607592529296875,0.29931640625,0.681243896484375,0.633819580078125
1724854960710644500,7.61764453125,0.2703399658203125,0.6268310546875,0.62896728515625
1724854960720695600,7.627695556640625,0.2918701171875,0.689453125,0.5882415771484375
1724854960730747400,7.637747314453125,0.3045196533203125,0.773529052734375,0.557098388671875
1724854960740799500,7.647799560546875,0.2842254638671875,0.8075103759765625,0.550048828125
1724854960750851600,7.6578515625,0.256011962890625,0.8372039794921875,0.546142578125
1724854960760903700,7.667903564453125,0.2520904541015625,0.8513946533203125,0.5634613037109375
1724854960770955500,7.67795556640625,0.2726898193359375,0.8434295654296875,0.59808349609375
1724854960781007600,7.688007568359375,0.298309326171875,0.8612823486328125,0.630035400390625
1724854960791059500,7.6980595703125,0.3128662109375,0.8569488525390625,0.644073486328125
1724854960801110500,7.708110595703125,0.3337249755859375,0.8368377685546875,0.6208953857421875
1724854960811162400,7.718162353515625,0.359954833984375,0.808807373046875,0.5684356689453125
1724854960821214500,7.72821435546875,0.3944091796875,0.802093505859375,0.5220489501953125
1724854960831266600,7.7382666015625,0.4190216064453125,0.8163909912109375,0.50311279296875
1724854960841318700,7.748318603515625,0.415740966796875,0.8335113525390625,0.500701904296875
1724854960851370500,7.75837060546875,0.3990325927734375,0.8328704833984375,0.5153350830078125
1724854960861422600,7.768422607421875,0.3756256103515625,0.8101959228515625,0.540496826171875
1724854960871474400,7.778474365234375,0.34979248046875,0.779266357421875,0.5704193115234375
1724854960881525500,7.788525390625,0.3327484130859375,0.7540435791015625,0.5964508056640625
1724854960891577600,7.79857763671875,0.335693359375,0.7375335693359375,0.607086181640625
1724854960901629400,7.80862939453125,0.3557586669921875,0.7263336181640625,0.601226806640625
1724854960911681500,7.818681640625,0.382904052734375,0.7136688232421875,0.5934906005859375
1724854960921733600,7.828733642578125,0.405731201171875,0.696563720703125,0.6003265380859375
1724854960931785500,7.838785400390625,0.4291839599609375,0.6820068359375,0.6263580322265625
1724854960941837600,7.848837646484375,0.456329345703125,0.6697998046875,0.6567230224609375
1724854960951888600,7.858888671875,0.46124267578125,0.6632232666015625,0.6627349853515625
1724854960961940500,7.8689404296875,0.421661376953125,0.6421356201171875,0.636962890625
1724854960971992600,7.87899267578125,0.3895416259765625,0.6297760009765625,0.6198577880859375
1724854960982044400,7.88904443359375,0.3678741455078125,0.6293792724609375,0.61834716796875
1724854960992096500,7.899096435546875,0.380035400390625,0.6383514404296875,0.6436004638671875
1724854961002148600,7.909148681640625,0.3869476318359375,0.6049652099609375,0.6641387939453125
1724854961012200700,7.91920068359375,0.3658294677734375,0.575653076171875,0.6600494384765625
1724854961022252500,7.92925244140625,0.349700927734375,0.573486328125,0.654388427734375
1724854961032303600,7.9393037109375,0.381500244140625,0.5406646728515625,0.6686248779296875
1724854961042355500,7.94935546875,0.3660736083984375,0.542388916015625,0.67608642578125
1724854961052407600,7.959407470703125,0.38153076171875,0.5375518798828125,0.6984100341796875
1724854961062459400,7.96945947265625,0.410919189453125,0.54815673828125,0.704833984375
1724854961072511500,7.979511474609375,0.4110107421875,0.57806396484375,0.7230987548828125
1724854961082563600,7.9895634765625,0.399871826171875,0.606719970703125,0.7417449951171875
1724854961092615000,7.999614990234375,0.4160614013671875,0.6502685546875,0.754180908203125
1724854961102667000,8.0096669921875,0.3907623291015625,0.611236572265625,0.761993408203125
1724854961112718000,8.019718017578125,0.3797760009765625,0.6027984619140625,0.77862548828125
1724854961122770200,8.029770263671875,0.44134521484375,0.611358642578125,0.7874298095703125
1724854961132822000,8.039822021484374,0.458343505859375,0.5914306640625,0.760772705078125
1724854961142874000,8.0498740234375,0.4348297119140625,0.56829833984375,0.7386322021484375
1724854961152926000,8.059926025390626,0.4438629150390625,0.5667724609375,0.722076416015625
1724854961162978000,8.06997802734375,0.450439453125,0.586578369140625,0.71728515625
1724854961173030000,8.08002978515625,0.4460906982421875,0.5748443603515625,0.6903839111328125
1724854961183081000,8.0900810546875,0.4683074951171875,0.5710601806640625,0.6729278564453125
1724854961193132800,8.1001328125,0.46697998046875,0.5674285888671875,0.64642333984375
1724854961203185200,8.11018505859375,0.491302490234375,0.5577850341796875,0.650787353515625
1724854961213237000,8.120237060546875,0.5095977783203125,0.5598602294921875,0.66998291015625
1724854961223289000,8.1302890625,0.5013885498046875,0.539306640625,0.67852783203125
1724854961233341000,8.1403408203125,0.490936279296875,0.5317535400390625,0.698150634765625
1724854961243393000,8.15039306640625,0.49298095703125,0.52899169921875,0.7204132080078125
1724854961253444900,8.16044482421875,0.5216827392578125,0.545745849609375,0.765472412109375
1724854961263496000,8.170495849609376,0.5198974609375,0.5477142333984375,0.7896575927734375
1724854961273547800,8.1805478515625,0.50360107421875,0.537628173828125,0.8068389892578125
1724854961283600100,8.19060009765625,0.507171630859375,0.5416107177734375,0.8471832275390625
1724854961293652000,8.20065185546875,0.4680023193359375,0.526031494140625,0.814849853515625
1724854961303704000,8.2107041015625,0.4259490966796875,0.4925537109375,0.7564849853515625
1724854961313756000,8.220755859375,0.408905029296875,0.4612884521484375,0.731048583984375
1724854961323808000,8.23080810546875,0.3897552490234375,0.4524383544921875,0.6982269287109375
1724854961333859000,8.240859130859375,0.39569091796875,0.45867919921875,0.6998748779296875
1724854961343911000,8.250910888671875,0.4119720458984375,0.482025146484375,0.6965789794921875
1724854961353963000,8.260962890625,0.4429473876953125,0.524261474609375,0.7332000732421875
1724854961364015000,8.27101513671875,0.4641265869140625,0.54620361328125,0.7253875732421875
1724854961374067000,8.28106689453125,0.485687255859375,0.53912353515625,0.70135498046875
1724854961384119000,8.291119140625,0.5347442626953125,0.5452880859375,0.733795166015625
1724854961394171000,8.3011708984375,0.5528717041015625,0.538055419921875,0.7295989990234375
1724854961404222000,8.311221923828125,0.5521087646484375,0.520416259765625,0.6960906982421875
1724854961414274000,8.321274169921875,0.55499267578125,0.5349273681640625,0.65411376953125
1724854961424326000,8.331325927734374,0.563079833984375,0.53643798828125,0.65478515625
1724854961434378000,8.3413779296875,0.549835205078125,0.5994720458984375,0.6781005859375
1724854961444430000,8.35143017578125,0.5628814697265625,0.6141815185546875,0.71173095703125
1724854961454482200,8.361482177734375,0.5768890380859375,0.6072540283203125,0.7624053955078125
1724854961464534000,8.371533935546875,0.5682373046875,0.5477142333984375,0.756103515625
1724854961474586000,8.381586181640625,0.5825653076171875,0.4814453125,0.77044677734375
1724854961484637000,8.391636962890624,0.55963134765625,0.4641265869140625,0.7929229736328125
1724854961494689000,8.40168896484375,0.54833984375,0.4345550537109375,0.73345947265625
1724854961504740900,8.411740966796875,0.576416015625,0.439849853515625,0.664276123046875
1724854961514793000,8.42179296875,0.60125732421875,0.4583740234375,0.621795654296875
1724854961524844800,8.4318447265625,0.6137542724609375,0.4468231201171875,0.6202545166015625
1724854961534897200,8.441897216796875,0.61676025390625,0.4437713623046875,0.6037139892578125
1724854961544949000,8.451948974609374,0.6306304931640625,0.4348297119140625,0.6082305908203125
1724854961555000000,8.462,0.6722259521484375,0.3905487060546875,0.6180877685546875
1724854961565052200,8.47205224609375,0.613616943359375,0.415557861328125,0.631561279296875
1724854961575104000,8.48210400390625,0.613311767578125,0.3659820556640625,0.6145477294921875
1724854961585155800,8.49215576171875,0.6389007568359375,0.399810791015625,0.5969390869140625
1724854961595208000,8.5022080078125,0.65966796875,0.390655517578125,0.6725006103515625
1724854961605259800,8.512259765625,0.721405029296875,0.3344268798828125,0.7620086669921875
1724854961615312100,8.52231201171875,0.670867919921875,0.313079833984375,0.7848358154296875
1724854961625363200,8.53236328125,0.6773223876953125,0.3437957763671875,0.74798583984375
1724854961635415000,8.5424150390625,0.730438232421875,0.4178924560546875,0.73345947265625
1724854961645467100,8.552467041015625,0.6419677734375,0.3460540771484375,0.778076171875
1724854961655519000,8.56251904296875,0.584869384765625,0.2851409912109375,0.776519775390625
1724854961665571000,8.572571044921874,0.54412841796875,0.2705078125,0.7538909912109375
1724854961675623000,8.582622802734376,0.602325439453125,0.2108001708984375,0.7534332275390625
1724854961685675000,8.592675048828125,0.667083740234375,0.2767333984375,0.7121429443359375
1724854961695725800,8.602725830078125,0.6972503662109375,0.32061767578125,0.6226043701171875
1724854961705778000,8.61277783203125,0.578460693359375,0.2590789794921875,0.654449462890625
1724854961715830000,8.622830078125,0.54888916015625,0.118560791015625,0.6807861328125
1724854961725882000,8.632882080078126,0.5706634521484375,0.0875396728515625,0.588043212890625
1724854961735934000,8.642933837890626,0.637908935546875,0.1177825927734375,0.520477294921875
1724854961745986000,8.652986083984375,0.6510467529296875,0.165802001953125,0.4848175048828125
1724854961756038000,8.663037841796875,0.55926513671875,0.14337158203125,0.4600830078125
1724854961766089000,8.6730888671875,0.53302001953125,0.064697265625,0.4764251708984375
1724854961776141000,8.68314111328125,0.546112060546875,0.0825653076171875,0.4555816650390625
1724854961786193000,8.69319287109375,0.5947723388671875,0.1187286376953125,0.46270751953125
1724854961796245000,8.703244873046875,0.57720947265625,0.106536865234375,0.4892425537109375
1724854961806297000,8.713297119140625,0.5297393798828125,0.0904388427734375,0.5008392333984375
1724854961816349000,8.723348876953125,0.5621490478515625,0.1011199951171875,0.501739501953125
1724854961826401000,8.733401123046875,0.63299560546875,0.1333465576171875,0.4911346435546875
1724854961836452000,8.7434521484375,0.725738525390625,0.13006591796875,0.54656982421875
1724854961846504000,8.75350390625,0.703460693359375,0.0660247802734375,0.593048095703125
1724854961856556000,8.76355615234375,0.7232208251953125,0.1528167724609375,0.55023193359375
1724854961866607900,8.77360791015625,0.7825927734375,0.21527099609375,0.607635498046875
1724854961876660200,8.78366015625,0.7673797607421875,0.22430419921875,0.6366424560546875
1724854961886712000,8.793712158203125,0.7658843994140625,0.21124267578125,0.604888916015625
1724854961896764200,8.80376416015625,0.8477325439453125,0.1876678466796875,0.662078857421875
1724854961906815000,8.81381494140625,0.7667236328125,0.08831787109375,0.72247314453125
1724854961916867000,8.8238671875,0.7591705322265625,0.1599273681640625,0.7276611328125
1724854961926919000,8.8339189453125,0.8298187255859375,0.2102813720703125,0.7804718017578125
1724854961936971000,8.843970947265625,0.9090576171875,0.2270050048828125,0.762969970703125
1724854961947022800,8.85402294921875,0.9757080078125,0.2260894775390625,0.7621917724609375
1724854961957075000,8.864074951171874,0.9848480224609375,0.25341796875,0.6960601806640625
1724854961967127000,8.874126953125,0.8178253173828125,0.412200927734375,0.609222412109375
1724854961977178000,8.88417822265625,0.9163818359375,0.2671661376953125,0.7384185791015625
1724854961987230000,8.89422998046875,0.717041015625,0.14971923828125,0.68365478515625
1724854961997282000,8.904281982421875,0.6576080322265625,0.17425537109375,0.5963897705078125
1724854962007334000,8.914333984375,0.61053466796875,0.13494873046875,0.4683837890625
1724854962017386000,8.924385986328126,0.609375,0.0763702392578125,0.39813232421875
1724854962027437800,8.934437744140626,0.657806396484375,0.1091461181640625,0.444305419921875
1724854962037489000,8.944489013671875,0.684783935546875,0.1917877197265625,0.506622314453125
1724854962047541000,8.954541015625,0.73211669921875,0.230865478515625,0.527252197265625
1724854962057593000,8.964593017578125,0.7544097900390625,0.172882080078125,0.5876312255859375
1724854962067645200,8.974645263671874,0.7374267578125,0.099029541015625,0.6186676025390625
1724854962077697000,8.984697021484376,0.6904754638671875,0.0625152587890625,0.59820556640625
1724854962087749000,8.9947490234375,0.655670166015625,0.0685882568359375,0.5781097412109375
1724854962097800400,9.004800537109375,0.66607666015625,0.10443115234375,0.57452392578125
1724854962107852500,9.0148525390625,0.65093994140625,0.1211090087890625,0.5722808837890625
1724854962117904400,9.024904296875,0.6420440673828125,0.1106109619140625,0.5129852294921875
1724854962127956500,9.03495654296875,0.6281890869140625,0.1061248779296875,0.488800048828125
1724854962138008300,9.04500830078125,0.6309051513671875,0.133392333984375,0.5206298828125
1724854962148060400,9.055060302734375,0.633880615234375,0.1820526123046875,0.5664825439453125
1724854962158112500,9.065112548828125,0.6677398681640625,0.2080535888671875,0.58831787109375
1724854962168163300,9.075163330078125,0.72943115234375,0.1993560791015625,0.6219635009765625
1724854962178215400,9.08521533203125,0.7421112060546875,0.1689605712890625,0.675567626953125
1724854962188267500,9.095267578125,0.7524261474609375,0.1681671142578125,0.7170257568359375
1724854962198319400,9.1053193359375,0.7562713623046875,0.1831207275390625,0.719451904296875
1724854962208371500,9.115371337890625,0.7351837158203125,0.181732177734375,0.6838836669921875
1724854962218423300,9.12542333984375,0.710357666015625,0.163116455078125,0.665069580078125
1724854962228475400,9.135475341796875,0.685089111328125,0.1488800048828125,0.6787109375
1724854962238526500,9.1455263671875,0.6352386474609375,0.1470947265625,0.6928863525390625
1724854962248578300,9.155578369140626,0.6497344970703125,0.1552886962890625,0.710906982421875
1724854962258630400,9.16563037109375,0.6627349853515625,0.1614532470703125,0.760986328125
1724854962268682500,9.1756826171875,0.6190338134765625,0.197906494140625,0.81158447265625
1724854962278734300,9.185734375,0.5760040283203125,0.27667236328125,0.812530517578125
1724854962288786400,9.195786376953125,0.5774993896484375,0.34771728515625,0.7894744873046875
1724854962298837500,9.20583740234375,0.613616943359375,0.364959716796875,0.7783355712890625
1724854962308889300,9.215889404296876,0.6441192626953125,0.3330841064453125,0.8140411376953125
1724854962318941400,9.22594140625,0.5604248046875,0.3157196044921875,0.8403167724609375
1724854962328993300,9.2359931640625,0.4769744873046875,0.3330078125,0.800994873046875
1724854962339045600,9.246045654296875,0.45989990234375,0.34503173828125,0.67840576171875
1724854962349097500,9.256097412109375,0.4461212158203125,0.312469482421875,0.550537109375
1724854962359149600,9.266149658203124,0.4110565185546875,0.2534027099609375,0.490875244140625
1724854962369200400,9.276200439453126,0.4022216796875,0.1999053955078125,0.4702911376953125
1724854962379252500,9.28625244140625,0.4105377197265625,0.1937255859375,0.454193115234375
1724854962389304300,9.29630419921875,0.403900146484375,0.21624755859375,0.42962646484375
1724854962399356400,9.3063564453125,0.4222259521484375,0.203857421875,0.42510986328125
1724854962409408300,9.316408203125,0.324432373046875,0.2171783447265625,0.42193603515625
1724854962419460400,9.32646044921875,0.3769378662109375,0.1979522705078125,0.4511260986328125
1724854962429512400,9.336512451171876,0.3845367431640625,0.1945343017578125,0.4614105224609375
1724854962439563500,9.3465634765625,0.359130859375,0.2299652099609375,0.47650146484375
1724854962449615400,9.356615478515625,0.4450836181640625,0.230194091796875,0.5330047607421875
1724854962459667500,9.36666748046875,0.445098876953125,0.2821044921875,0.6048126220703125
1724854962469719300,9.37671923828125,0.48138427734375,0.3614044189453125,0.6947784423828125
1724854962479771400,9.386771484375,0.54400634765625,0.4168548583984375,0.7652587890625
1724854962489823200,9.3968232421875,0.56500244140625,0.4445343017578125,0.79669189453125
1724854962499874300,9.406874267578125,0.57647705078125,0.47442626953125,0.8121490478515625
1724854962509926400,9.416926513671875,0.7333526611328125,0.444305419921875,0.9253387451171875
1724854962519978500,9.426978515625,0.8282470703125,0.463775634765625,1.1033172607421875
1724854962530030600,9.437030517578124,0.7362823486328125,0.63262939453125,1.2511444091796875
1724854962540082400,9.44708251953125,0.6501617431640625,0.822265625,1.2124176025390625
1724854962550134500,9.457134521484376,0.668060302734375,0.9009857177734375,1.100555419921875
1724854962560185300,9.467185302734375,0.6672210693359375,0.961151123046875,1.1075286865234375
1724854962570237400,9.477237548828125,0.6562347412109375,1.0545654296875,1.21148681640625
1724854962580289300,9.487289306640625,0.647308349609375,1.0966949462890625,1.2869873046875
1724854962590341400,9.49734130859375,0.5856475830078125,1.0193328857421875,1.1999969482421875
1724854962600393200,9.507393310546876,0.588409423828125,0.80291748046875,1.0701904296875
1724854962610445600,9.517445556640626,0.4549407958984375,0.6303253173828125,0.903472900390625
1724854962620497400,9.527497314453125,0.3962860107421875,0.484344482421875,0.776275634765625
1724854962630548500,9.537548583984375,0.33203125,0.427490234375,0.6661224365234375
1724854962640600300,9.547600341796874,0.3579254150390625,0.3748016357421875,0.6121368408203125
1724854962650652400,9.55765234375,0.3611297607421875,0.3572540283203125,0.5832366943359375
1724854962660704300,9.567704345703126,0.337554931640625,0.41790771484375,0.5470123291015625
1724854962670756400,9.57775634765625,0.290863037109375,0.54388427734375,0.510650634765625
1724854962680808200,9.58780810546875,0.4068145751953125,0.632171630859375,0.4865570068359375
1724854962690859300,9.597859375,0.40167236328125,0.7455291748046875,0.4520721435546875
1724854962700911600,9.60791162109375,0.438079833984375,0.78997802734375,0.4239349365234375
1724854962710963500,9.61796337890625,0.4716796875,0.7932586669921875,0.427398681640625
1724854962721015600,9.628015625,0.4612274169921875,0.7625274658203125,0.4309539794921875
1724854962731067400,9.6380673828125,0.458099365234375,0.685272216796875,0.4199676513671875
1724854962741119500,9.648119384765625,0.42840576171875,0.657073974609375,0.468353271484375
1724854962751170300,9.65817041015625,0.420257568359375,0.603759765625,0.518341064453125
1724854962761222400,9.668222412109374,0.4168548583984375,0.5389251708984375,0.5359039306640625
1724854962771274200,9.678274169921876,0.38226318359375,0.5275421142578125,0.56988525390625
1724854962781326300,9.688326416015625,0.3516387939453125,0.5334320068359375,0.579681396484375
1724854962791378400,9.69837841796875,0.369232177734375,0.58062744140625,0.5983428955078125
1724854962801430500,9.708430419921875,0.3936309814453125,0.6310272216796875,0.585540771484375
1724854962811481600,9.718481689453125,0.38983154296875,0.718292236328125,0.5777130126953125
1724854962821533400,9.728533447265624,0.38189697265625,0.770599365234375,0.573974609375
1724854962831585300,9.738585205078126,0.3935394287109375,0.811187744140625,0.629852294921875
1724854962841637400,9.748637451171875,0.4210357666015625,0.828582763671875,0.691131591796875
1724854962851689200,9.758689208984375,0.4376220703125,0.804351806640625,0.795806884765625
1724854962861741300,9.7687412109375,0.400909423828125,0.7928619384765625,0.87237548828125
1724854962871793400,9.77879345703125,0.3743743896484375,0.7834930419921875,0.88262939453125
1724854962881844500,9.788844482421876,0.3788299560546875,0.7768707275390625,0.835052490234375
1724854962891896600,9.798896484375,0.4334564208984375,0.7728118896484375,0.7578582763671875
1724854962901948400,9.808948486328125,0.4708251953125,0.781829833984375,0.6551361083984375
1724854962912000500,9.81900048828125,0.3891143798828125,0.789306640625,0.5736846923828125
1724854962922052400,9.82905224609375,0.2843170166015625,0.785675048828125,0.54290771484375
1724854962932104400,9.8391044921875,0.291107177734375,0.792327880859375,0.544921875
1724854962942155300,9.8491552734375,0.3016357421875,0.803070068359375,0.5532989501953125
1724854962952207400,9.859207275390625,0.2797088623046875,0.876678466796875,0.5853424072265625
1724854962962259500,9.869259521484375,0.249176025390625,0.8904571533203125,0.5699462890625
1724854962972311600,9.8793115234375,0.25958251953125,0.8466033935546875,0.5303955078125
1724854962982363400,9.88936328125,0.299896240234375,0.7931976318359375,0.510528564453125
1724854962992415500,9.89941552734375,0.347259521484375,0.7679443359375,0.5149688720703125
1724854963002466600,9.909466552734376,0.4219818115234375,0.76025390625,0.5174102783203125
1724854963012518400,9.919518310546875,0.505828857421875,0.78460693359375,0.5144500732421875
1724854963022570500,9.929570556640625,0.4779052734375,0.8007965087890625,0.501739501953125
1724854963032622300,9.939622314453125,0.3796539306640625,0.768280029296875,0.47686767578125
1724854963042674200,9.949674072265625,0.2973480224609375,0.75,0.452728271484375
1724854963052726500,9.9597265625,0.2998809814453125,0.765960693359375,0.44708251953125
1724854963062777600,9.969777587890626,0.3219146728515625,0.7953338623046875,0.44256591796875
1724854963072829400,9.979829345703125,0.3141937255859375,0.8057861328125,0.43408203125
1724854963082881500,9.989881591796875,0.3019561767578125,0.7844085693359375,0.4512176513671875
1724854963092933400,9.999933349609375,0.3071441650390625,0.747772216796875,0.4677276611328125
1724854963102989000,10.009989013671875,0.338531494140625,0.7124176025390625,0.4729766845703125
1724854963113041000,10.020041015625,0.4008331298828125,0.7133941650390625,0.4828033447265625
1724854963123092000,10.030092041015624,0.464691162109375,0.74017333984375,0.5047149658203125
1724854963133143800,10.040143798828124,0.5235137939453125,0.7970733642578125,0.5360107421875
1724854963143196000,10.05019580078125,0.529632568359375,0.8337249755859375,0.5710296630859375
1724854963153247700,10.060247802734375,0.5020751953125,0.844879150390625,0.5932769775390625
1724854963163299800,10.0702998046875,0.488983154296875,0.824920654296875,0.6030426025390625
1724854963173351700,10.0803515625,0.472198486328125,0.7891693115234375,0.5836029052734375
1724854963183402800,10.09040283203125,0.4615631103515625,0.7686920166015625,0.56622314453125
1724854963193455000,10.100455078125,0.4468536376953125,0.7391815185546875,0.5574188232421875
1724854963203507000,10.1105068359375,0.46942138671875,0.6982574462890625,0.553924560546875
1724854963213559000,10.12055908203125,0.4918975830078125,0.6840362548828125,0.597869873046875
1724854963223611000,10.13061083984375,0.4292144775390625,0.6505889892578125,0.66455078125
1724854963233662700,10.140662841796875,0.372161865234375,0.5871124267578125,0.7350921630859375
1724854963243713800,10.1507138671875,0.389129638671875,0.5438232421875,0.799896240234375
1724854963253766000,10.160765869140626,0.41473388671875,0.5567779541015625,0.8397369384765625
1724854963263817700,10.170817626953125,0.3965606689453125,0.5008544921875,0.8660125732421875
1724854963273869800,10.180869873046875,0.390625,0.569000244140625,0.849884033203125
1724854963283922000,10.190921875,0.4012603759765625,0.673583984375,0.81036376953125
1724854963293974000,10.20097412109375,0.411834716796875,0.6414337158203125,0.815460205078125
1724854963304024800,10.21102490234375,0.4025115966796875,0.5691070556640625,0.7777252197265625
1724854963314077000,10.221076904296876,0.3790740966796875,0.5366363525390625,0.7078399658203125
1724854963324128800,10.231128662109375,0.365478515625,0.5198974609375,0.6310272216796875
1724854963334180900,10.241180908203125,0.3673858642578125,0.5140533447265625,0.573272705078125
1724854963344232700,10.251232666015625,0.4008636474609375,0.5632171630859375,0.589385986328125
1724854963354283800,10.26128369140625,0.4089813232421875,0.5685577392578125,0.619232177734375
1724854963364335900,10.2713359375,0.426025390625,0.59075927734375,0.6789093017578125
1724854963374388000,10.281387939453126,0.454132080078125,0.62322998046875,0.7481842041015625
1724854963384440000,10.291440185546875,0.4476165771484375,0.592926025390625,0.762847900390625
1724854963394492000,10.301491943359375,0.424957275390625,0.5501861572265625,0.747222900390625
1724854963404544000,10.3115439453125,0.40673828125,0.5235748291015625,0.6974945068359375
1724854963414594800,10.3215947265625,0.4233245849609375,0.5362701416015625,0.6547698974609375
1724854963424647000,10.33164697265625,0.425140380859375,0.5115509033203125,0.590362548828125
1724854963434698800,10.34169873046875,0.4524993896484375,0.506195068359375,0.5677947998046875
1724854963444750800,10.351750732421875,0.492706298828125,0.5771331787109375,0.6420440673828125
1724854963454803000,10.361802978515625,0.4803619384765625,0.6051788330078125,0.71295166015625
1724854963464855000,10.37185498046875,0.4649200439453125,0.5697479248046875,0.76239013671875
1724854963474905900,10.38190576171875,0.495452880859375,0.58062744140625,0.87274169921875
1724854963484958000,10.3919580078125,0.5571136474609375,0.574981689453125,0.918548583984375
1724854963495009800,10.402009765625,0.580047607421875,0.533447265625,0.8896484375
1724854963505062000,10.412061767578125,0.630035400390625,0.5772857666015625,0.965240478515625
1724854963515113700,10.42211376953125,0.611572265625,0.639739990234375,0.9627532958984375
1724854963525165800,10.432165771484375,0.53448486328125,0.651885986328125,0.854888916015625
1724854963535217000,10.442216796875,0.503082275390625,0.61920166015625,0.7812042236328125
1724854963545268700,10.452268798828126,0.50408935546875,0.567779541015625,0.7021026611328125
1724854963555321000,10.462321044921875,0.509429931640625,0.524322509765625,0.673736572265625
1724854963565373000,10.472373046875,0.5113525390625,0.5236053466796875,0.652130126953125
1724854963575425000,10.482425048828125,0.5371246337890625,0.5145416259765625,0.60797119140625
1724854963585475800,10.492475830078124,0.5604248046875,0.5138092041015625,0.5872650146484375
1724854963595528000,10.50252783203125,0.564117431640625,0.5356903076171875,0.6306915283203125
1724854963605579800,10.512579833984375,0.5562591552734375,0.52703857421875,0.6170196533203125
1724854963615632000,10.5226318359375,0.55401611328125,0.5389251708984375,0.635284423828125
1724854963625683700,10.53268359375,0.5802001953125,0.5156097412109375,0.674163818359375
1724854963635736000,10.542736083984375,0.534820556640625,0.5413665771484375,0.6904754638671875
1724854963645787000,10.552786865234374,0.5395660400390625,0.5254058837890625,0.66290283203125
1724854963655839000,10.5628388671875,0.5655364990234375,0.519195556640625,0.6512603759765625
1724854963665890800,10.572890869140625,0.6168975830078125,0.4582672119140625,0.65386962890625
1724854963675943000,10.58294287109375,0.6074676513671875,0.428497314453125,0.6468963623046875
1724854963685994800,10.592994873046875,0.58203125,0.38360595703125,0.5959320068359375
1724854963696046800,10.603046875,0.5838623046875,0.38958740234375,0.6021270751953125
1724854963706098000,10.613097900390626,0.5940093994140625,0.38385009765625,0.67431640625
1724854963716149800,10.623149658203126,0.63775634765625,0.365447998046875,0.6549224853515625
1724854963726201900,10.633201904296875,0.6887359619140625,0.3768157958984375,0.6482086181640625
1724854963736254000,10.64325390625,0.6757049560546875,0.3121185302734375,0.63641357421875
1724854963746306000,10.65330615234375,0.6139373779296875,0.2540435791015625,0.666259765625
1724854963756356900,10.66335693359375,0.61395263671875,0.2673187255859375,0.6721038818359375
1724854963766409000,10.673408935546876,0.6140899658203125,0.3392791748046875,0.6038665771484375
1724854963776460800,10.683460693359375,0.629150390625,0.337371826171875,0.6647796630859375
1724854963786513000,10.693512939453125,0.6134033203125,0.2381744384765625,0.6644134521484375
1724854963796564700,10.703564697265625,0.645904541015625,0.2184906005859375,0.667022705078125
1724854963806616800,10.713616943359375,0.6309967041015625,0.12322998046875,0.6228179931640625
1724854963816668000,10.72366796875,0.714111328125,0.133575439453125,0.5794219970703125
1724854963826719700,10.7337197265625,0.7851715087890625,0.0811767578125,0.66204833984375
1724854963836771800,10.743771728515625,0.587005615234375,0.0491180419921875,0.6405792236328125
1724854963846824000,10.753823974609375,0.571868896484375,0.04425048828125,0.521484375
1724854963856875800,10.763875732421875,0.660064697265625,0.0355987548828125,0.567626953125
1724854963866926800,10.7739267578125,0.52569580078125,-0.06683349609375,0.4761962890625
1724854963876979000,10.78397900390625,0.5584869384765625,-0.1191558837890625,0.4792938232421875
1724854963887030800,10.79403076171875,0.6562652587890625,-0.025909423828125,0.5782623291015625
1724854963897083000,10.804082763671875,0.6414031982421875,-0.02728271484375,0.6795501708984375
1724854963907134700,10.814134765625,0.7493896484375,0.1264801025390625,0.788421630859375
1724854963917185800,10.824185791015625,0.696868896484375,0.0860595703125,0.77447509765625
1724854963927238000,10.83423779296875,0.7128143310546875,0.042236328125,0.643646240234375
1724854963937290000,10.8442900390625,0.747955322265625,0.030517578125,0.6364593505859375
1724854963947341800,10.854341796875,0.7364501953125,0.047821044921875,0.615875244140625
1724854963957394000,10.864393798828125,0.7057952880859375,0.0623931884765625,0.601287841796875
1724854963967445800,10.87444580078125,0.64697265625,0.053955078125,0.5751800537109375
1724854963977496800,10.884496826171874,0.598876953125,0.063446044921875,0.5290069580078125
1724854963987549000,10.894548828125,0.572998046875,0.105133056640625,0.4730224609375
1724854963997600800,10.904600830078126,0.6070098876953125,0.1422271728515625,0.476959228515625
1724854964007652900,10.91465283203125,0.6798248291015625,0.1537322998046875,0.516265869140625
1724854964017705000,10.924705078125,0.7189178466796875,0.153472900390625,0.534088134765625
1724854964027756000,10.934756103515625,0.7425537109375,0.1441802978515625,0.5767822265625
1724854964037807900,10.944807861328124,0.7522430419921875,0.1304931640625,0.6221466064453125
1724854964047860000,10.95485986328125,0.730224609375,0.11090087890625,0.618560791015625
1724854964057911800,10.964911865234376,0.68829345703125,0.1056976318359375,0.5829620361328125
1724854964067964000,10.9749638671875,0.6767120361328125,0.1043701171875,0.5390625
1724854964078015000,10.985014892578125,0.6646575927734375,0.0987701416015625,0.562469482421875
1724854964088066800,10.99506689453125,0.6498870849609375,0.096954345703125,0.610198974609375
1724854964098116000,11.0051162109375,0.6339569091796875,0.0892333984375,0.6095733642578125
1724854964108168400,11.01516845703125,0.640716552734375,0.0814666748046875,0.6093292236328125
1724854964118220300,11.02522021484375,0.63470458984375,0.0782623291015625,0.6271820068359375
1724854964128272400,11.0352724609375,0.647491455078125,0.09210205078125,0.65777587890625
1724854964138323200,11.0453232421875,0.6590423583984375,0.112091064453125,0.6811370849609375
1724854964148375300,11.055375244140626,0.626556396484375,0.128997802734375,0.6907501220703125
1724854964158427100,11.06542724609375,0.6144256591796875,0.1408843994140625,0.680023193359375
1724854964168479200,11.075479248046875,0.603790283203125,0.14190673828125,0.67431640625
1724854964178531000,11.085531005859375,0.5914306640625,0.1414031982421875,0.6689605712890625
1724854964188582100,11.09558203125,0.583709716796875,0.13702392578125,0.6679534912109375
1724854964198634200,11.10563427734375,0.5829010009765625,0.1383209228515625,0.689788818359375
1724854964208686300,11.115686279296876,0.5811614990234375,0.1678314208984375,0.710784912109375
1724854964218738400,11.125738525390625,0.60382080078125,0.2191925048828125,0.7268829345703125
1724854964228790300,11.135790283203125,0.6221160888671875,0.2669830322265625,0.745025634765625
1724854964238841300,11.14584130859375,0.61456298828125,0.2990875244140625,0.763763427734375
1724854964248893200,11.15589306640625,0.5943756103515625,0.3117218017578125,0.7685546875
1724854964258945300,11.1659453125,0.5699310302734375,0.307220458984375,0.746612548828125
1724854964268997000,11.1759970703125,0.597412109375,0.2847747802734375,0.7392578125
1724854964279049200,11.18604931640625,0.6175689697265625,0.2650604248046875,0.7369232177734375
1724854964289100300,11.196100341796875,0.555572509765625,0.2856292724609375,0.735931396484375
1724854964299152100,11.206152099609374,0.586151123046875,0.30743408203125,0.7366485595703125
1724854964309204200,11.216204345703124,0.5973663330078125,0.3472442626953125,0.7287445068359375
1724854964319256300,11.22625634765625,0.570556640625,0.4019775390625,0.7382354736328125
1724854964329308200,11.23630810546875,0.5296173095703125,0.4455108642578125,0.748687744140625
1724854964339359200,11.246359130859375,0.5174407958984375,0.47015380859375,0.751434326171875
1724854964349411300,11.256411376953125,0.5236053466796875,0.4541778564453125,0.7556304931640625
1724854964359463200,11.266463134765624,0.4860992431640625,0.4501953125,0.75567626953125
1724854964369515300,11.276515380859376,0.503662109375,0.43524169921875,0.7569580078125
1724854964379567000,11.286567138671876,0.4781646728515625,0.4354705810546875,0.7658233642578125
1724854964389619500,11.296619384765625,0.53436279296875,0.418060302734375,0.7924346923828125
1724854964399670300,11.306670166015625,0.476806640625,0.45172119140625,0.7963104248046875
1724854964409722400,11.316722412109375,0.4379119873046875,0.466705322265625,0.78753662109375
1724854964419774200,11.326774169921874,0.4069366455078125,0.4806976318359375,0.764068603515625
1724854964429826300,11.336826416015626,0.4109649658203125,0.4647064208984375,0.727386474609375
1724854964439878100,11.346878173828125,0.4678497314453125,0.41668701171875,0.722076416015625
1724854964449929200,11.35692919921875,0.4388885498046875,0.4509735107421875,0.73358154296875
1724854964459981300,11.366981201171875,0.448516845703125,0.5124664306640625,0.7636566162109375
1724854964470033200,11.377033203125,0.455078125,0.593780517578125,0.7972412109375
1724854964480085200,11.387085205078124,0.468414306640625,0.6486663818359375,0.831787109375
1724854964490137300,11.397137451171876,0.468048095703125,0.6753997802734375,0.8592987060546875
1724854964500188400,11.4071884765625,0.4712982177734375,0.6500701904296875,0.8620758056640625
1724854964510240300,11.417240234375,0.453704833984375,0.6258697509765625,0.84722900390625
1724854964520292400,11.427292236328125,0.4582366943359375,0.600067138671875,0.8149566650390625
1724854964530344200,11.43734423828125,0.5173187255859375,0.542083740234375,0.773681640625
1724854964540396300,11.447396240234376,0.4810028076171875,0.561370849609375,0.7285003662109375
1724854964550447000,11.457447021484375,0.4335174560546875,0.624664306640625,0.7189483642578125
1724854964560499200,11.467499267578125,0.4291229248046875,0.688812255859375,0.6947021484375
1724854964570551000,11.477551025390625,0.4473419189453125,0.7065887451171875,0.684844970703125
1724854964580603400,11.487603271484375,0.429412841796875,0.7307891845703125,0.684478759765625
1724854964590655200,11.4976552734375,0.417327880859375,0.758148193359375,0.6432647705078125
1724854964600707300,11.507707275390626,0.4488983154296875,0.7210845947265625,0.6223297119140625
1724854964610758400,11.51775830078125,0.42938232421875,0.722900390625,0.644073486328125
1724854964620810200,11.527810302734375,0.382232666015625,0.7515869140625,0.63525390625
1724854964630862300,11.5378623046875,0.439544677734375,0.731048583984375,0.6089019775390625
1724854964640914200,11.5479140625,0.4454803466796875,0.76690673828125,0.6333465576171875
1724854964650965200,11.55796533203125,0.424407958984375,0.8193359375,0.631683349609375
1724854964661017000,11.56801708984375,0.4363555908203125,0.821533203125,0.6394805908203125
1724854964671069200,11.578069091796875,0.3833465576171875,0.839630126953125,0.6674346923828125
1724854964681121300,11.588121337890625,0.324249267578125,0.831939697265625,0.6685333251953125
1724854964691173400,11.59817333984375,0.36163330078125,0.7426605224609375,0.6497650146484375
1724854964701225200,11.60822509765625,0.39080810546875,0.679412841796875,0.6331787109375
1724854964711276300,11.6182763671875,0.4095001220703125,0.656829833984375,0.63311767578125
1724854964721328400,11.628328369140625,0.42950439453125,0.680328369140625,0.630645751953125
1724854964731380200,11.638380126953125,0.496612548828125,0.6678619384765625,0.5987396240234375
1724854964741432000,11.64843212890625,0.4456634521484375,0.7120819091796875,0.5944366455078125
1724854964751483100,11.658483154296874,0.38427734375,0.7580718994140625,0.5905609130859375
1724854964761535200,11.66853515625,0.346038818359375,0.765594482421875,0.569244384765625
1724854964771587000,11.678587158203126,0.322601318359375,0.762664794921875,0.5396881103515625
1724854964781639400,11.688639404296875,0.296112060546875,0.7613983154296875,0.541473388671875
1724854964791691300,11.698691162109375,0.2836151123046875,0.759490966796875,0.572357177734375
1724854964801743400,11.708743408203125,0.330169677734375,0.777984619140625,0.5690155029296875
1724854964811794200,11.718794189453124,0.29803466796875,0.798095703125,0.570281982421875
1724854964821846300,11.72884619140625,0.30010986328125,0.771728515625,0.53753662109375
1724854964831898000,11.738898193359375,0.3390350341796875,0.7530517578125,0.524444580078125
1724854964841950200,11.7489501953125,0.3397369384765625,0.7473602294921875,0.5045166015625
1724854964852001300,11.759001220703125,0.3464813232421875,0.752685546875,0.505889892578125
1724854964862053000,11.76905322265625,0.3770599365234375,0.7747955322265625,0.513641357421875
1724854964872105500,11.77910546875,0.4039154052734375,0.8223724365234375,0.531341552734375
1724854964882157300,11.7891572265625,0.416839599609375,0.8417205810546875,0.5536041259765625
1724854964892209400,11.79920947265625,0.420989990234375,0.8568267822265625,0.5887451171875
1724854964902261200,11.80926123046875,0.4087982177734375,0.8275604248046875,0.6121063232421875
1724854964912312300,11.819312255859375,0.39654541015625,0.7997283935546875,0.6234130859375
1724854964922364200,11.8293642578125,0.3978271484375,0.7845916748046875,0.6392364501953125
1724854964932416300,11.839416259765626,0.39007568359375,0.75018310546875,0.63983154296875
1724854964942468000,11.849468017578126,0.3948974609375,0.718536376953125,0.6380462646484375
1724854964952520200,11.859520263671875,0.3851165771484375,0.6741180419921875,0.624114990234375
1724854964962571300,11.8695712890625,0.3817901611328125,0.6614227294921875,0.632476806640625
1724854964972623400,11.879623291015625,0.387298583984375,0.6911163330078125,0.6500396728515625
1724854964982675200,11.88967529296875,0.4091644287109375,0.735870361328125,0.66204833984375
1724854964992727300,11.899727294921876,0.411102294921875,0.75738525390625,0.6724700927734375
1724854965002778400,11.9097783203125,0.3824005126953125,0.7266998291015625,0.6783599853515625
1724854965012830200,11.919830322265625,0.3704681396484375,0.674835205078125,0.6865386962890625
1724854965022882300,11.92988232421875,0.354095458984375,0.6163330078125,0.663299560546875
1724854965032934100,11.93993408203125,0.367218017578125,0.610748291015625,0.6243743896484375
1724854965042986200,11.949986328125,0.3970489501953125,0.63995361328125,0.612091064453125
1724854965053037000,11.960037109375,0.38720703125,0.6183013916015625,0.6077880859375
1724854965063089200,11.970089111328125,0.4158782958984375,0.6316680908203125,0.6456756591796875
1724854965073141200,11.980141357421875,0.422454833984375,0.6142730712890625,0.6728668212890625
1724854965083193300,11.990193359375,0.42828369140625,0.61505126953125,0.7022857666015625
1724854965093245200,12.0002451171875,0.4459228515625,0.617919921875,0.7329864501953125
1724854965103295200,12.010295166015625,0.44879150390625,0.606689453125,0.730865478515625
1724854965113347300,12.020347412109375,0.4614715576171875,0.6063232421875,0.754058837890625
1724854965123399200,12.030399169921875,0.4758453369140625,0.5933837890625,0.77484130859375
1724854965133451300,12.040451171875,0.4969482421875,0.5808563232421875,0.8197174072265625
1724854965143503000,12.050503173828124,0.46673583984375,0.5635986328125,0.82586669921875
1724854965153554200,12.06055419921875,0.4795989990234375,0.5573272705078125,0.84234619140625
1724854965163606300,12.070606201171875,0.4423065185546875,0.54595947265625,0.7858734130859375
1724854965173658000,12.080658203125,0.446868896484375,0.541259765625,0.779327392578125
1724854965183710500,12.09071044921875,0.4799957275390625,0.553497314453125,0.7830963134765625
1724854965193762300,12.10076220703125,0.4680328369140625,0.5260772705078125,0.7284698486328125
1724854965203813400,12.1108134765625,0.4666748046875,0.52294921875,0.7275238037109375
1724854965213865200,12.120865234375,0.47967529296875,0.5317230224609375,0.7389678955078125
1724854965223917300,12.130917236328125,0.472900390625,0.5134124755859375,0.7319488525390625
1724854965233969200,12.14096923828125,0.472808837890625,0.5039825439453125,0.7472686767578125
1724854965244021200,12.151021240234375,0.4812774658203125,0.49365234375,0.738372802734375
1724854965254072000,12.161072021484374,0.5028839111328125,0.473052978515625,0.7403564453125
1724854965264124200,12.171124267578126,0.505950927734375,0.43359375,0.7072296142578125
1724854965274176300,12.18117626953125,0.539886474609375,0.4349212646484375,0.734130859375
1724854965284228400,12.191228271484375,0.5617828369140625,0.458648681640625,0.7577056884765625
1724854965294279400,12.201279541015625,0.56573486328125,0.4593505859375,0.7679595947265625
1724854965304331300,12.211331298828124,0.5631256103515625,0.4469451904296875,0.7923431396484375
1724854965314383400,12.22138330078125,0.5539398193359375,0.46112060546875,0.8047332763671875
1724854965324435200,12.231435302734376,0.537841796875,0.4739990234375,0.816131591796875
1724854965334487300,12.2414873046875,0.5638275146484375,0.4598388671875,0.7621917724609375
1724854965344538000,12.2515380859375,0.5731658935546875,0.46441650390625,0.699951171875
1724854965354590200,12.261590087890625,0.5727691650390625,0.4435577392578125,0.6695404052734375
1724854965364642000,12.27164208984375,0.5081634521484375,0.4740447998046875,0.7017669677734375
1724854965374694400,12.2816943359375,0.537017822265625,0.4319610595703125,0.678497314453125
1724854965384746200,12.291746337890626,0.5882110595703125,0.4300079345703125,0.6652069091796875
1724854965394797300,12.30179736328125,0.668548583984375,0.37646484375,0.6613006591796875
1724854965404849400,12.311849365234375,0.5975189208984375,0.415283203125,0.65283203125
1724854965414901200,12.3219013671875,0.607635498046875,0.39794921875,0.623565673828125
1724854965424953300,12.331953369140624,0.6031036376953125,0.379180908203125,0.67156982421875
1724854965435004200,12.342004150390625,0.610107421875,0.3263702392578125,0.7169952392578125
1724854965445056300,12.35205615234375,0.596160888671875,0.3654022216796875,0.78790283203125
1724854965455108000,12.362108154296875,0.636749267578125,0.3419189453125,0.7597198486328125
1724854965465160200,12.37216015625,0.6780853271484375,0.3414154052734375,0.65740966796875
1724854965475212300,12.38221240234375,0.647613525390625,0.3402557373046875,0.6875457763671875
1724854965485263400,12.392263427734376,0.610504150390625,0.226593017578125,0.68341064453125
1724854965495315200,12.402315185546875,0.5248870849609375,0.23974609375,0.5626373291015625
1724854965505367300,12.4123671875,0.5181121826171875,0.2617340087890625,0.4876556396484375
1724854965515419100,12.422419189453125,0.596405029296875,0.1443939208984375,0.53582763671875
1724854965525471200,12.43247119140625,0.5330963134765625,0.06207275390625,0.5477447509765625
1724854965535522300,12.442522216796876,0.6632537841796875,0.033966064453125,0.573272705078125
1724854965545574100,12.45257421875,0.5609283447265625,0.1976318359375,0.5574188232421875
1724854965555626200,12.462626220703125,0.607391357421875,0.135986328125,0.565826416015625
1724854965565678300,12.47267822265625,0.57794189453125,0.0855712890625,0.43621826171875
1724854965575729200,12.482729248046875,0.67095947265625,0.0854644775390625,0.452850341796875
1724854965585781200,12.49278125,0.520721435546875,-0.0542755126953125,0.45269775390625
1724854965595833300,12.502833251953126,0.5452880859375,-0.00213623046875,0.5389862060546875
1724854965605885200,12.51288525390625,0.659698486328125,0.087432861328125,0.582427978515625
1724854965615937300,12.522937255859375,0.7037811279296875,0.1033782958984375,0.62030029296875
1724854965625988400,12.53298828125,0.7228851318359375,0.0896148681640625,0.6722564697265625
1724854965636040200,12.543040283203124,0.7320098876953125,0.119049072265625,0.644683837890625
1724854965646092300,12.55309228515625,0.7637481689453125,0.0221099853515625,0.64056396484375
1724854965656144100,12.56314404296875,0.67022705078125,-0.08563232421875,0.5917816162109375
1724854965666196200,12.5731962890625,0.6974029541015625,-0.016326904296875,0.614044189453125
1724854965676247300,12.583247314453125,0.705352783203125,0.03643798828125,0.6179351806640625
1724854965686299400,12.59329931640625,0.6769561767578125,0.064361572265625,0.61004638671875
1724854965696351200,12.603351318359374,0.6454010009765625,0.08154296875,0.5567626953125
1724854965706403300,12.6134033203125,0.6451568603515625,0.072357177734375,0.543212890625
1724854965716454100,12.6234541015625,0.6530303955078125,0.060882568359375,0.57489013671875
1724854965726506200,12.63350634765625,0.6611175537109375,0.04827880859375,0.5944671630859375
1724854965736558000,12.64355810546875,0.6386871337890625,0.04071044921875,0.6170501708984375
1724854965746610200,12.653610107421875,0.59149169921875,0.0446319580078125,0.6271514892578125
1724854965756661200,12.6636611328125,0.601806640625,0.0585479736328125,0.6386566162109375
1724854965766713000,12.673713134765626,0.6137237548828125,0.0765533447265625,0.6580810546875
1724854965776765400,12.683765380859375,0.6219635009765625,0.0872802734375,0.6787261962890625
1724854965786817300,12.6938173828125,0.6227569580078125,0.098052978515625,0.6989593505859375
1724854965796869400,12.703869384765625,0.59417724609375,0.104248046875,0.6965484619140625
1724854965806920200,12.713920166015624,0.567230224609375,0.1029205322265625,0.674560546875
1724854965816972300,12.72397216796875,0.5578155517578125,0.1017608642578125,0.6484527587890625
1724854965827024100,12.734024169921875,0.5702362060546875,0.0861358642578125,0.63421630859375
1724854965837076200,12.744076171875,0.592742919921875,0.07781982421875,0.642547607421875
1724854965847128000,12.754128173828125,0.599395751953125,0.0977325439453125,0.6734619140625
1724854965857179100,12.76417919921875,0.5830535888671875,0.1421356201171875,0.70147705078125
1724854965867231200,12.774231201171874,0.591583251953125,0.2039947509765625,0.71087646484375
1724854965877283300,12.784283447265626,0.590301513671875,0.2576446533203125,0.711578369140625
1724854965887335400,12.79433544921875,0.569122314453125,0.2831878662109375,0.7182769775390625
1724854965897386200,12.80438623046875,0.5467681884765625,0.2916717529296875,0.727081298828125
1724854965907438300,12.814438232421875,0.5621795654296875,0.2699127197265625,0.7326507568359375
1724854965917490200,12.824490234375,0.551483154296875,0.25628662109375,0.746429443359375
1724854965927542300,12.834542236328126,0.5754241943359375,0.2591552734375,0.75885009765625
1724854965937594000,12.844593994140626,0.6131134033203125,0.2594451904296875,0.774383544921875
1724854965947645200,12.854645263671875,0.56719970703125,0.2998504638671875,0.798187255859375
1724854965957697300,12.864697265625,0.5659332275390625,0.3610382080078125,0.829010009765625
1724854965967749400,12.874749267578125,0.528656005859375,0.4390411376953125,0.827880859375
1724854965977801200,12.88480126953125,0.55609130859375,0.4483795166015625,0.8256988525390625
1724854965987852300,12.894852294921876,0.5311279296875,0.42889404296875,0.8041229248046875
1724854965997904400,12.904904296875,0.47540283203125,0.3912353515625,0.7748260498046875
1724854966007956200,12.914956298828125,0.439208984375,0.3509674072265625,0.7305908203125
1724854966018008300,12.92500830078125,0.483917236328125,0.3169097900390625,0.7209625244140625
1724854966028059100,12.93505908203125,0.514923095703125,0.3351593017578125,0.726593017578125
1724854966038111200,12.945111328125,0.476318359375,0.3992462158203125,0.7324981689453125
1724854966048163000,12.9551630859375,0.470367431640625,0.4542388916015625,0.7601776123046875
1724854966058215200,12.965215087890625,0.4680938720703125,0.509674072265625,0.8044281005859375
1724854966068267300,12.975267333984375,0.5525665283203125,0.5235595703125,0.862823486328125
1724854966078318300,12.985318359375,0.509124755859375,0.6038665771484375,0.897735595703125
1724854966088370400,12.995370361328124,0.4859161376953125,0.6768951416015625,0.9229888916015625
1724854966098421800,13.005421875,0.473785400390625,0.7300872802734375,0.9188079833984375
1724854966108473900,13.015473876953125,0.5,0.69439697265625,0.8879852294921875
1724854966118524700,13.025524658203125,0.4359130859375,0.659942626953125,0.8277587890625
1724854966128576800,13.03557666015625,0.3895111083984375,0.614288330078125,0.7584991455078125
1724854966138628600,13.045628662109374,0.49365234375,0.5184173583984375,0.71099853515625
1724854966148680700,13.0556806640625,0.47698974609375,0.5156402587890625,0.7086639404296875
1724854966158732500,13.065732666015625,0.4692230224609375,0.5384368896484375,0.7259674072265625
1724854966168783600,13.07578369140625,0.4478912353515625,0.6133880615234375,0.7870330810546875
1724854966178835700,13.085835693359375,0.4183502197265625,0.6720428466796875,0.821258544921875
1724854966188887800,13.0958876953125,0.407440185546875,0.688507080078125,0.81829833984375
1724854966198940000,13.10593994140625,0.4643707275390625,0.6517181396484375,0.7789306640625
1724854966208990700,13.11599072265625,0.4351043701171875,0.6707611083984375,0.740264892578125
1724854966219042800,13.126042724609375,0.4739837646484375,0.6416473388671875,0.6832733154296875
1724854966229094700,13.1360947265625,0.452789306640625,0.6523284912109375,0.6438446044921875
1724854966239146800,13.146146728515625,0.4126739501953125,0.70965576171875,0.6263885498046875
1724854966249197800,13.15619775390625,0.4260101318359375,0.7164459228515625,0.5749359130859375
1724854966259249700,13.166249755859376,0.4190521240234375,0.73675537109375,0.5860748291015625
1724854966269301800,13.1763017578125,0.3614044189453125,0.7897491455078125,0.622711181640625
1724854966279353900,13.186353759765625,0.35888671875,0.8034820556640625,0.63360595703125
1724854966289405700,13.19640576171875,0.38427734375,0.7934722900390625,0.6765899658203125
1724854966299456800,13.206456787109374,0.3517303466796875,0.790313720703125,0.7335662841796875
1724854966309508900,13.2165087890625,0.34002685546875,0.7685699462890625,0.7476806640625
1724854966319560700,13.226560791015626,0.32940673828125,0.7364501953125,0.705841064453125
1724854966329612800,13.23661279296875,0.399139404296875,0.658782958984375,0.6442413330078125
1724854966339663600,13.24666357421875,0.3433074951171875,0.681182861328125,0.5975189208984375
