time,seconds_elapsed,z,y,x
1724854953146595800,0.053595947265625,-1.7068054676055908,1.315095067024231,0.29430124163627625
1724854953156648000,0.06364794921875,-1.691947102546692,1.5119460821151733,0.23384590446949005
1724854953166699800,0.07369970703125,-1.5879684686660767,1.584875464439392,0.18105649948120117
1724854953176751900,0.083751953125,-1.4516843557357788,1.529373288154602,0.15025517344474792
1724854953186803700,0.0938037109375,-1.2960448265075684,1.511203646659851,0.10907807946205139
1724854953196854800,0.103854736328125,-1.1338926553726196,1.47175133228302,0.0437036007642746
1724854953206907000,0.113906982421875,-0.9652892351150513,1.3264482021331787,-0.007314067799597979
1724854953216958700,0.123958740234375,-0.7588534951210022,1.0598093271255493,0.03613540530204773
1724854953227011000,0.134010986328125,-0.7113553285598755,0.942373514175415,0.3011177182197571
1724854953237063000,0.14406298828125,-0.7167753577232361,0.8781654834747314,0.7464385032653809
1724854953247115000,0.154114990234375,-0.4876313805580139,0.6712228059768677,1.131402611732483
1724854953257166800,0.164166748046875,-0.03785758465528488,0.4581909477710724,1.488842487335205
1724854953267219000,0.174218994140625,0.4987357258796692,0.3271048963069916,1.8629080057144165
1724854953277270800,0.184270751953125,0.9417318105697632,0.5191166996955872,2.2250285148620605
1724854953287321900,0.19432177734375,1.2561054229736328,0.8637887835502625,2.603168487548828
1724854953297373700,0.204373779296875,1.430727243423462,1.0482944250106812,2.923701763153076
1724854953307426000,0.214426025390625,1.3965004682540894,0.4655977189540863,2.711937189102173
1724854953317478000,0.224477783203125,1.2849291563034058,0.22565224766731262,2.3190248012542725
1724854953327530000,0.234530029296875,1.1821520328521729,0.18246497213840485,1.9288692474365234
1724854953337581800,0.244581787109375,1.1446782350540161,0.02593129128217697,1.5721768140792847
1724854953347634000,0.254634033203125,1.1708236932754517,-0.24862967431545258,1.2406268119812012
1724854953357685800,0.264685791015625,1.2575676441192627,-0.48524224758148193,0.9264390468597412
1724854953367737900,0.27473779296875,1.3599517345428467,-0.37015804648399353,0.5732945203781128
1724854953377790000,0.2847900390625,1.4788857698440552,-0.012772483751177788,0.2667630612850189
1724854953387841000,0.294841064453125,1.616424560546875,0.37615641951560974,0.1118074506521225
1724854953397892900,0.304892822265625,1.7859643697738647,0.7089016437530518,0.12316690385341644
1724854953407945000,0.314945068359375,1.9610415697097778,0.9537878036499023,0.2216612994670868
1724854953417996800,0.324996826171875,2.0729589462280273,1.3199279308319092,0.2755540907382965
1724854953428049000,0.335048828125,2.051126480102539,1.941137433052063,0.16211383044719696
1724854953438100700,0.345100830078125,1.9346059560775757,2.089015483856201,-0.06780673563480377
1724854953448152800,0.35515283203125,1.6736959218978882,1.419255256652832,-0.43198445439338684
1724854953458205000,0.365204833984375,1.13542902469635,0.5085092782974243,-0.9172092080116272
1724854953468257000,0.375257080078125,0.5062543153762817,0.14555469155311584,-1.3377389907836914
1724854953478308900,0.385308837890625,-0.1552642434835434,0.1355060487985611,-1.5990456342697144
1724854953488360000,0.39535986328125,-0.6953255534172058,0.4369596838951111,-1.7632594108581543
1724854953498411800,0.405411865234375,-0.9019735455513,0.6071803569793701,-1.8383123874664307
1724854953508463900,0.4154638671875,-0.7253065705299377,0.38142189383506775,-1.7727415561676025
1724854953518515700,0.425515625,-0.4430283010005951,0.13920259475708008,-1.5856562852859497
1724854953528567800,0.43556787109375,-0.1773320585489273,-0.14464670419692993,-1.3527183532714844
1724854953538619600,0.44561962890625,-0.043388642370700836,-0.5193833112716675,-1.1249866485595703
1724854953548672000,0.455672119140625,-0.07434940338134766,-0.7649454474449158,-0.9373480081558228
1724854953558723800,0.465723876953125,-0.1348779946565628,-0.7001895904541016,-0.793349027633667
1724854953568776000,0.47577587890625,-0.1347801387310028,-0.45241743326187134,-0.6666257381439209
1724854953578827000,0.485826904296875,-0.06391022354364395,-0.11946051567792892,-0.5277461409568787
1724854953588878800,0.49587890625,-0.006698554381728172,0.08775871992111206,-0.41413256525993347
1724854953598931000,0.505930908203125,0.052251581102609634,0.13624237477779388,-0.41263720393180847
1724854953608982800,0.515982666015625,0.0889391154050827,0.18889407813549042,-0.5196537971496582
1724854953619035000,0.526034912109375,0.18481343984603882,0.372533917427063,-0.6501010060310364
1724854953629087000,0.5360869140625,0.33954209089279175,0.5671333074569702,-0.7169097065925598
1724854953639138800,0.546138916015625,0.46742016077041626,0.604665219783783,-0.6932464241981506
1724854953649191000,0.55619091796875,0.515509307384491,0.6102612018585205,-0.6681476831436157
1724854953659242800,0.56624267578125,0.42246562242507935,0.5875816941261292,-0.7601673603057861
1724854953669294800,0.576294921875,0.35916680097579956,0.5607167482376099,-0.9889137148857117
1724854953679346000,0.586345947265625,0.3175426721572876,0.5851941704750061,-1.2146248817443848
1724854953689397800,0.596397705078125,0.28214386105537415,0.6650058031082153,-1.3320093154907227
1724854953699449900,0.606449951171875,0.2819877862930298,0.8453308343887329,-1.3066520690917969
1724854953709502000,0.616501953125,0.30008575320243835,1.0053980350494385,-1.2019246816635132
1724854953719554000,0.626553955078125,0.311509907245636,1.0232577323913574,-1.0592896938323975
1724854953729606000,0.63660595703125,0.3004031777381897,0.9862833619117737,-0.9579319357872009
1724854953739658000,0.646657958984375,0.2195245921611786,0.9080532789230347,-0.9015664458274841
1724854953749709800,0.656709716796875,0.10182998329401016,0.8323104381561279,-0.8350464105606079
1724854953759762000,0.666761962890625,0.042755208909511566,0.7489559054374695,-0.797610342502594
1724854953769812700,0.676812744140625,0.05488656461238861,0.6469926834106445,-0.8599780797958374
1724854953779864800,0.68686474609375,0.026210982352495193,0.45851626992225647,-0.9409794807434082
1724854953789916700,0.696916748046875,-0.05956612899899483,0.2608889639377594,-1.016816258430481
1724854953799969000,0.706968994140625,-0.17028892040252686,0.20580442249774933,-1.0550062656402588
1724854953810020900,0.717020751953125,-0.2682749629020691,0.2728550434112549,-1.0377261638641357
1724854953820073000,0.727072998046875,-0.34985795617103577,0.4682386517524719,-0.9669484496116638
1724854953830124800,0.737124755859375,-0.4305153787136078,0.7109732627868652,-0.8687719106674194
1724854953840177000,0.747177001953125,-0.5442661643028259,0.958522617816925,-0.7506188750267029
1724854953850228700,0.757228759765625,-0.6975590586662292,1.114620566368103,-0.6182554960250854
1724854953860280800,0.76728076171875,-0.8661075830459595,1.124705195426941,-0.5019574165344238
1724854953870331600,0.77733154296875,-1.0504302978515625,1.0339537858963013,-0.4337599575519562
1724854953880384000,0.787384033203125,-1.218641996383667,0.956575870513916,-0.3761874735355377
1724854953890435800,0.797435791015625,-1.3131033182144165,0.9481543302536011,-0.3013491630554199
1724854953900488000,0.807488037109375,-1.3200275897979736,1.1551743745803833,-0.19309484958648682
1724854953910539800,0.817539794921875,-1.2677981853485107,1.9125268459320068,-0.26499032974243164
1724854953920592000,0.827591796875,-1.135522723197937,2.3750057220458984,-0.20188991725444794
1724854953930643700,0.837643798828125,-1.08317232131958,2.8830549716949463,-0.06365198642015457
1724854953940695800,0.84769580078125,-1.1957004070281982,3.193915843963623,0.15468887984752655
1724854953950748000,0.857747802734375,-1.4429038763046265,3.255004644393921,0.5030438303947449
1724854953960799000,0.867799072265625,-1.7417213916778564,3.0837459564208984,0.9138785004615784
1724854953970851000,0.87785107421875,-2.0399367809295654,2.8700411319732666,1.2332648038864136
1724854953980903000,0.88790283203125,-2.3296658992767334,2.624656915664673,1.279626727104187
1724854953990954800,0.897954833984375,-2.569537401199341,2.4393062591552734,0.9788511395454407
1724854954001006800,0.9080068359375,-2.73996901512146,2.361769914627075,0.4514869749546051
1724854954011058700,0.91805859375,-2.871291160583496,2.415264844894409,-0.07413897663354874
1724854954021110800,0.92811083984375,-3.002635955810547,2.6423685550689697,-0.4207853376865387
1724854954031163000,0.938162841796875,-3.172997236251831,3.0033419132232666,-0.5209476351737976
1724854954041215000,0.948215087890625,-3.3749310970306396,3.497424602508545,-0.40003105998039246
1724854954051266800,0.958266845703125,-3.6308116912841797,4.13578462600708,-0.13296641409397125
1724854954061318000,0.96831787109375,-3.8125762939453125,4.569754123687744,0.19919902086257935
1724854954071370000,0.978369873046875,-3.9476211071014404,4.639376640319824,0.5191277265548706
1724854954081421800,0.988421875,-4.095946311950684,4.285834312438965,0.7429664134979248
1724854954091477800,0.998477783203125,-4.394571781158447,3.992716073989868,0.7068310976028442
1724854954101529600,1.008529541015625,-4.659665584564209,3.780883312225342,0.5103039145469666
1724854954111581400,1.01858154296875,-4.728870868682861,3.557425022125244,0.3471563458442688
1724854954121633500,1.028633544921875,-4.674849987030029,3.3333888053894043,0.38129645586013794
1724854954131685600,1.038685546875,-4.536056041717529,2.9612228870391846,0.44479721784591675
1724854954141737700,1.04873779296875,-4.32901668548584,2.9132871627807617,0.7135623693466187
1724854954151788800,1.058788818359375,-4.110763072967529,3.010504722595215,1.1060527563095093
1724854954161840600,1.068840576171875,-3.8343634605407715,2.703549861907959,1.4166816473007202
1724854954171892700,1.078892822265625,-3.547365427017212,2.1486380100250244,1.4975144863128662
1724854954181944600,1.088944580078125,-3.3063461780548096,1.5455420017242432,1.3042057752609253
1724854954191996700,1.09899658203125,-3.0939218997955322,0.9374520182609558,0.9588667154312134
1724854954202048500,1.109048583984375,-2.9374163150787354,0.45722466707229614,0.6456899046897888
1724854954212100600,1.1191005859375,-2.8830854892730713,0.1030052900314331,0.4979836940765381
1724854954222152700,1.129152587890625,-2.8624422550201416,-0.18713359534740448,0.5154433846473694
1724854954232204800,1.139204833984375,-2.7420225143432617,-0.5592926740646362,0.5226290225982666
1724854954242256600,1.149256591796875,-2.3434996604919434,-0.84427410364151,0.5506963133811951
1724854954252307700,1.1593076171875,-1.6419097185134888,-0.8413681387901306,0.7252929210662842
1724854954262359600,1.169359619140625,-0.5429916977882385,-0.35174569487571716,0.8503866791725159
1724854954272411600,1.17941162109375,0.5169386863708496,-0.15653906762599945,0.7390687465667725
1724854954282463500,1.18946337890625,1.0317388772964478,0.26253142952919006,0.28560006618499756
1724854954292515600,1.199515625,0.9103814959526062,0.48079654574394226,-0.3673706352710724
1724854954302567700,1.209567626953125,0.47743189334869385,0.0718282163143158,-0.9760388135910034
1724854954312619800,1.219619873046875,0.2566699981689453,-0.5490601658821106,-1.4097166061401367
1724854954322671600,1.229671630859375,0.24879634380340576,-1.0231294631958008,-1.4425290822982788
1724854954332723700,1.2397236328125,0.34503668546676636,-1.2446023225784302,-1.0707521438598633
1724854954342774500,1.2497744140625,0.2672215700149536,-1.3327343463897705,-0.2067195624113083
1724854954352826600,1.25982666015625,-0.10133852064609528,-1.6075403690338135,0.8476312160491943
1724854954362878500,1.26987841796875,-0.569902777671814,-2.2605769634246826,1.522660493850708
1724854954372930600,1.2799306640625,-1.0231600999832153,-3.433293581008911,1.7809962034225464
1724854954382982700,1.289982666015625,-0.9325791001319885,-3.5614471435546875,1.7814388275146484
1724854954393034800,1.30003466796875,-0.7261248230934143,-3.3408310413360596,1.7993550300598145
1724854954403086600,1.310086669921875,-0.4816458821296692,-2.9632623195648193,1.6235291957855225
1724854954413138700,1.320138671875,-0.3740341067314148,-2.290107488632202,1.2339818477630615
1724854954423190500,1.3301904296875,-0.24168457090854645,-1.8535897731781006,0.8882870674133301
1724854954433242600,1.34024267578125,0.1489286869764328,-1.04488205909729,0.5485758185386658
1724854954443293700,1.350293701171875,0.7411091923713684,0.6719992160797119,0.42039546370506287
1724854954453345500,1.360345458984375,0.7725508809089661,2.1116621494293213,0.43510833382606506
1724854954463397400,1.3703974609375,0.1679033637046814,2.5480704307556152,0.23487482964992523
1724854954473449700,1.38044970703125,-0.8797239065170288,1.350020170211792,0.13714320957660675
1724854954483501600,1.39050146484375,-1.3191514015197754,0.0712517648935318,0.2411031574010849
1724854954493553700,1.4005537109375,-1.2341949939727783,-0.8334562182426453,0.5222733616828918
1724854954503605500,1.41060546875,-0.915793240070343,-1.2715035676956177,0.6021295785903931
1724854954513657600,1.42065771484375,-0.6430068016052246,-1.0043044090270996,0.7421664595603943
1724854954523709400,1.43070947265625,-0.3477887213230133,-0.23341703414916992,0.8007432222366333
1724854954533760500,1.440760498046875,-0.21729403734207153,0.21990887820720673,0.5879412293434143
1724854954543812600,1.4508125,-0.002824625000357628,1.550770878791809,0.0011653904803097248
1724854954553864700,1.46086474609375,0.4086119532585144,2.085576057434082,-0.4440481960773468
1724854954563916800,1.470916748046875,0.5761737823486328,2.0817553997039795,-0.4569283127784729
1724854954573968600,1.48096875,0.4431144595146179,2.240520715713501,-0.3488559424877167
1724854954584020700,1.491020751953125,0.2650880217552185,2.398005247116089,-0.24224402010440826
1724854954594072600,1.501072509765625,-0.19499872624874115,2.0533976554870605,0.3056793808937073
1724854954604124700,1.511124755859375,-0.5674415826797485,1.630481481552124,1.095090627670288
1724854954614176500,1.521176513671875,-0.5408511757850647,1.489157795906067,1.5626479387283325
1724854954624228600,1.531228515625,-0.3422275483608246,1.6118022203445435,1.4002225399017334
1724854954634279700,1.54127978515625,-0.013363122008740902,1.7520281076431274,0.7493942975997925
1724854954644331800,1.551331787109375,0.3972395956516266,2.241657018661499,-0.3244180381298065
1724854954654383600,1.561383544921875,0.5500034093856812,1.9589226245880127,-0.7629430294036865
1724854954664435700,1.571435791015625,0.4532824456691742,1.8194496631622314,-0.7084603309631348
1724854954674487600,1.581487548828125,0.46164074540138245,1.8225072622299194,-0.45045575499534607
1724854954684539600,1.59153955078125,0.6639353036880493,1.6694684028625488,-0.08971459418535233
1724854954694591500,1.601591552734375,0.9589452147483826,1.3827687501907349,0.2896096408367157
1724854954704643800,1.611643798828125,1.1420564651489258,1.5555599927902222,0.2774142324924469
1724854954714695700,1.62169580078125,1.171726942062378,1.7140876054763794,-0.12138681858778
1724854954724746800,1.631746826171875,0.8437681794166565,1.7435863018035889,-0.1408955454826355
1724854954734798600,1.641798583984375,0.6525706052780151,1.7879319190979004,0.05803724750876427
1724854954744850700,1.6518505859375,0.5628542900085449,2.1233606338500977,0.2157272845506668
1724854954754902500,1.661902587890625,0.4366394281387329,2.264181613922119,0.24254180490970612
1724854954764954600,1.67195458984375,0.22857704758644104,2.379408121109009,0.14289696514606476
1724854954775006500,1.68200634765625,0.017514711245894432,2.3337318897247314,0.05172261595726013
1724854954785058800,1.692058837890625,-0.14288374781608582,2.218344211578369,-0.058621469885110855
1724854954795110700,1.702110595703125,-0.2793026268482208,1.9938901662826538,-0.1591324359178543
1724854954805162800,1.712162841796875,-0.29872480034828186,1.713139295578003,-0.2850967347621918
1724854954815214600,1.722214599609375,-0.18304365873336792,1.6204029321670532,-0.4613477289676666
1724854954825265700,1.732265625,-0.12739557027816772,1.6543275117874146,-0.5880018472671509
1724854954835317500,1.7423173828125,0.08514902740716934,0.4240832030773163,-1.4873408079147339
1724854954845369600,1.75236962890625,-0.10147624462842941,0.14686250686645508,-1.8360556364059448
1724854954855421400,1.76242138671875,-0.01371861808001995,0.19787144660949707,-1.5871806144714355
1724854954865473500,1.7724736328125,0.15891467034816742,0.581544041633606,-0.772373378276825
1724854954875525600,1.782525634765625,-0.053163524717092514,1.310569405555725,0.07407211512327194
1724854954885577700,1.79257763671875,-0.24386714398860931,1.4111030101776123,0.19945082068443298
1724854954895629600,1.802629638671875,-0.3939109146595001,0.5478783249855042,-0.4699687659740448
1724854954905681700,1.812681640625,-0.6947253346443176,0.5150681734085083,-0.845589280128479
1724854954915732700,1.822732666015625,-0.8936653733253479,0.40798747539520264,-0.6661454439163208
1724854954925784600,1.83278466796875,-1.2283318042755127,0.1599465161561966,-0.287156343460083
1724854954935836700,1.842836669921875,-1.9599944353103638,-0.1763891875743866,-0.11761883646249771
1724854954945888500,1.852888427734375,-3.018812894821167,-0.5634236931800842,-0.3354576826095581
1724854954955940600,1.862940673828125,-3.5680694580078125,-0.27766525745391846,-0.3267696499824524
1724854954965992700,1.87299267578125,-3.870210647583008,0.18446801602840424,-0.14741402864456177
1724854954976044500,1.88304443359375,-4.032349586486816,0.4279457926750183,-0.08528880774974823
1724854954986096600,1.8930966796875,-4.121356964111328,0.44822627305984497,-0.14351430535316467
1724854954996148500,1.9031484375,-4.039116859436035,0.20029424130916595,-0.22225835919380188
1724854955006200600,1.91320068359375,-4.170261383056641,-0.18723350763320923,-0.08547946810722351
1724854955016251600,1.923251708984375,-4.346014022827148,-0.5205076336860657,0.3307231366634369
1724854955026303500,1.933303466796875,-4.426154136657715,-1.3697731494903564,0.8002615571022034
1724854955036355800,1.94335595703125,-4.25829553604126,-2.2965896129608154,1.0546387434005737
1724854955046407700,1.95340771484375,-4.134763240814209,-2.5839085578918457,1.1432163715362549
1724854955056459800,1.963459716796875,-4.1367340087890625,-2.3875536918640137,1.03131902217865
1724854955066511600,1.97351171875,-4.190906524658203,-1.9274646043777466,0.6718157529830933
1724854955076563700,1.983563720703125,-4.2403564453125,-1.0903515815734863,0.2703511118888855
1724854955086615800,1.99361572265625,-4.2433905601501465,-0.2898063361644745,-0.0464090034365654
1724854955096668000,2.00366796875,-4.124561786651611,0.1643814593553543,-0.2537589371204376
1724854955106719000,2.013718994140625,-3.605750560760498,0.45352059602737427,-0.3358388841152191
1724854955116771000,2.02377099609375,-2.5935916900634766,0.8610137701034546,-0.237688347697258
1724854955126823000,2.033822998046875,-1.5587724447250366,1.084955096244812,0.048774830996990204
1724854955136875000,2.043875,-0.8450542688369751,1.229008674621582,0.42502066493034363
1724854955146926800,2.0539267578125,-0.5912851095199585,1.789340615272522,0.8212862610816956
1724854955156979000,2.06397900390625,-0.5437896251678467,2.640899896621704,1.1288119554519653
1724854955167030800,2.07403076171875,-0.5218435525894165,3.2300286293029785,1.274112343788147
1724854955177083100,2.084083251953125,-0.5561384558677673,3.4962825775146484,0.8384518027305603
1724854955187135000,2.094135009765625,-0.6554157733917236,3.0430166721343994,-0.4348217248916626
1724854955197187000,2.10418701171875,-0.8552225828170776,1.59600031375885,-1.9865491390228271
1724854955207238000,2.11423779296875,-1.1390933990478516,0.28296369314193726,-2.448366641998291
1724854955217290000,2.1242900390625,-1.3602676391601562,-0.11770360171794891,-1.4948512315750122
1724854955227341800,2.134341796875,-1.3802049160003662,-0.021762162446975708,-0.3040613532066345
1724854955237394000,2.144393798828125,-1.2428276538848877,0.02569795772433281,0.19829291105270386
1724854955247445800,2.15444580078125,-1.1114264726638794,-0.3201286792755127,0.30514052510261536
1724854955257498000,2.164498046875,-1.0553849935531616,-0.6833485960960388,0.08111242949962616
1724854955267550000,2.174550048828125,-1.0657380819320679,-0.6627599596977234,-0.0059614903293550014
1724854955277602000,2.18460205078125,-0.9854711890220642,-0.23007309436798096,-0.10766936093568802
1724854955287654000,2.19465380859375,-0.8780992031097412,-0.09012318402528763,-0.21358168125152588
1724854955297706000,2.2047060546875,-0.7167332768440247,-0.2570098638534546,-0.2734593451023102
1724854955307756800,2.2147568359375,-0.5137785077095032,-0.5300717353820801,-0.3025261461734772
1724854955317809000,2.224808837890625,-0.25829070806503296,-0.6606422066688538,-0.2561113238334656
1724854955327860700,2.23486083984375,0.09158340096473694,-0.4816908538341522,-0.21610534191131592
1724854955337912800,2.244912841796875,0.05433886498212814,-0.3170630633831024,-0.20700471103191376
1724854955347965000,2.25496484375,0.02352316305041313,-0.1487712413072586,-0.22912704944610596
1724854955358017000,2.26501708984375,0.038345105946063995,-0.05292833596467972,-0.1518947184085846
1724854955368068900,2.27506884765625,0.040564581751823425,0.036272380501031876,-0.05038115382194519
1724854955378121000,2.285120849609375,0.024841783568263054,0.0324365459382534,-0.00013411452528089285
1724854955388172800,2.2951728515625,0.0036731157451868057,0.09085405617952347,0.0018512720707803965
1724854955398224000,2.305223876953125,0.015361563302576542,-0.007049336098134518,-0.11686823517084122
1724854955408276000,2.31527587890625,-0.012821072712540627,0.1398698091506958,-0.19304582476615906
1724854955418327800,2.325327880859375,-0.006146451458334923,0.11358213424682617,-0.20446175336837769
1724854955428380000,2.3353798828125,0.004019367042928934,0.05133873224258423,-0.1500168889760971
1724854955438432000,2.345431884765625,0.026689797639846802,0.06517960131168365,-0.08880820125341415
1724854955448483800,2.35548388671875,0.07314864546060562,0.07070565223693848,-0.10002677142620087
1724854955458536000,2.365535888671875,0.06255089491605759,0.06255766749382019,-0.19586081802845
1724854955468587800,2.375587890625,0.03779361769556999,-0.008580690249800682,-0.30057790875434875
1724854955478639900,2.385639892578125,0.011886605992913246,-0.12191789597272873,-0.3000803589820862
1724854955488691000,2.39569091796875,0.013362528756260872,-0.22047802805900574,-0.2642456591129303
1724854955498742800,2.40574267578125,0.029140770435333252,-0.2880428731441498,-0.7437637448310852
1724854955508795100,2.415795166015625,-0.17700573801994324,-0.027502907440066338,-1.3459783792495728
1724854955518847000,2.425846923828125,-0.3154110312461853,0.459825336933136,-0.950317919254303
1724854955528899000,2.435899169921875,-0.38223427534103394,0.14091818034648895,-0.37600961327552795
1724854955538951000,2.445950927734375,-0.5027062892913818,-0.10523488372564316,0.09139266610145569
1724854955549003000,2.4560029296875,-0.6512494683265686,0.264598548412323,0.2968190610408783
1724854955559054800,2.466054931640625,-0.6612206697463989,0.09242125600576401,0.5514227747917175
1724854955569107000,2.47610693359375,-0.33181139826774597,-0.6906836032867432,0.747153103351593
1724854955579157800,2.48615771484375,0.214841827750206,-1.0604925155639648,0.7316175699234009
1724854955589209900,2.4962099609375,0.8213235139846802,-0.9752972722053528,0.5435629487037659
1724854955599262000,2.506261962890625,1.4671211242675781,-0.2329965978860855,0.5669013857841492
1724854955609314000,2.51631396484375,2.3256263732910156,0.21427437663078308,0.4284181296825409
1724854955619366000,2.526365966796875,2.7943291664123535,0.2528838515281677,0.34779274463653564
1724854955629418000,2.53641796875,2.426394462585449,-0.4354279935359955,0.04356176406145096
1724854955639469800,2.5464697265625,1.4843343496322632,-0.6805000305175781,-0.2923467457294464
1724854955649522000,2.55652197265625,0.2928675413131714,-0.2481907159090042,-0.5018381476402283
1724854955659574000,2.566573974609375,-0.16773566603660583,0.08137637376785278,-0.8755751252174377
1724854955669624800,2.576624755859375,0.1775580793619156,0.1814316064119339,-0.8387414813041687
1724854955679677000,2.586677001953125,0.7048365473747253,0.2051413208246231,-0.5993789434432983
1724854955689729000,2.59672900390625,0.9428248405456543,0.28259989619255066,-0.5409579873085022
1724854955699780900,2.60678076171875,0.94654780626297,0.4739744961261749,-0.6205226182937622
1724854955709833000,2.6168330078125,1.1689456701278687,0.2097977250814438,-0.743226170539856
1724854955719884800,2.626884765625,1.5614488124847412,-0.21524028480052948,-0.7460022568702698
1724854955729937000,2.63693701171875,1.425398826599121,-0.5358946919441223,-0.357855886220932
1724854955739988700,2.64698876953125,1.0098965167999268,-0.17790594696998596,-0.23018743097782135
1724854955750041000,2.657041015625,0.5242099761962891,-0.08343083411455154,-0.17095473408699036
1724854955760093000,2.667093017578125,0.13048820197582245,-0.1355854719877243,-0.11574498564004898
1724854955770144000,2.67714404296875,-0.08202619850635529,-0.10069461166858673,-0.026057979092001915
1724854955780195800,2.68719580078125,-0.2452777922153473,-0.010134455747902393,0.12673012912273407
1724854955790248000,2.697248046875,-0.4558795094490051,0.07067996263504028,0.288555771112442
1724854955800299800,2.7072998046875,-0.7182661890983582,0.17567633092403412,0.4105922281742096
1724854955810351900,2.717351806640625,-0.9185116291046143,0.1689678281545639,0.359750896692276
1724854955820403700,2.72740380859375,-0.8936994075775146,-0.026848187670111656,-0.03782552853226662
1724854955830456000,2.7374560546875,-0.2269725650548935,-0.4169887602329254,-0.44899922609329224
1724854955840508000,2.7475078125,0.1474437564611435,-0.5461406111717224,-0.5322898030281067
1724854955850560000,2.75756005859375,0.3085000216960907,-0.2571392059326172,-0.5706942081451416
1724854955860611000,2.767611083984375,0.053719013929367065,0.19749221205711365,-0.51877361536026
1724854955870663000,2.777662841796875,-0.157558873295784,-0.19846363365650177,-0.28111737966537476
1724854955880715000,2.787715087890625,-0.13879463076591492,-0.526418924331665,-0.2762894034385681
1724854955890766800,2.797766845703125,-0.0994967520236969,-0.4011874794960022,-0.30789288878440857
1724854955900819000,2.80781884765625,-0.08377422392368317,-0.28157126903533936,-0.2881765365600586
1724854955910871000,2.81787109375,-0.06436830013990402,-0.2221798449754715,-0.22495603561401367
1724854955920923000,2.8279228515625,-0.0549665130674839,-0.17048302292823792,-0.14908508956432343
1724854955930975000,2.83797509765625,-0.05248631164431572,-0.10524755716323853,-0.08240458369255066
1724854955941026800,2.84802685546875,-0.05298826843500137,-0.013718083500862122,-0.045654043555259705
1724854955951078000,2.858077880859375,-0.04926810413599014,0.06703056395053864,-0.023986296728253365
1724854955961130000,2.8681298828125,-0.040802016854286194,0.0984492227435112,-0.026589293032884598
1724854955971181800,2.878181884765625,-0.03133367747068405,0.07835220545530319,-0.026805540546774864
1724854955981234000,2.88823388671875,-0.018253369256854057,0.04464546591043472,-0.03433976322412491
1724854955991285800,2.89828564453125,-0.0230270866304636,0.004312425851821899,-0.05090302601456642
1724854956001338000,2.908338134765625,-0.028918124735355377,-0.022527506574988365,-0.08321000635623932
1724854956011390000,2.918389892578125,-0.04561694711446762,-0.04085990786552429,-0.11366379261016846
1724854956021442000,2.928442138671875,-0.05812918394804001,-0.06434142589569092,-0.13972564041614532
1724854956031494000,2.938493896484375,-0.05147447809576988,-0.0874326303601265,-0.13963349163532257
1724854956041546000,2.9485458984375,-0.011988612823188305,-0.07323326170444489,-0.10927440971136093
1724854956051596800,2.9585966796875,0.01225467398762703,-0.034536734223365784,-0.06247734650969505
1724854956061649000,2.96864892578125,0.055270299315452576,0.02588648349046707,0.0037682182155549526
1724854956071700700,2.97870068359375,0.07941718399524689,0.09415874630212784,0.05231018736958504
1724854956081753000,2.988753173828125,0.08342155814170837,0.1451156735420227,0.08560893684625626
1724854956091801600,2.998801513671875,0.07081016153097153,0.1696828007698059,0.10103876143693924
1724854956101853700,3.008853759765625,0.06444964557886124,0.1858506053686142,0.09408026933670044
1724854956111905500,3.018905517578125,0.04322105646133423,0.19221875071525574,0.0771992951631546
1724854956121957600,3.02895751953125,0.030970757827162743,0.18035660684108734,0.07170676440000534
1724854956132008400,3.039008544921875,-0.00665038637816906,0.16258293390274048,0.08078467845916748
1724854956142060500,3.049060546875,-0.029726311564445496,0.15323816239833832,0.06292128562927246
1724854956152112400,3.0591123046875,-0.03801034018397331,0.12529973685741425,0.046162012964487076
1724854956162164500,3.06916455078125,-0.06044730171561241,0.1088428944349289,0.02601536363363266
1724854956172216600,3.079216552734375,-0.05159548670053482,0.07244892418384552,-0.0001675034873187542
1724854956182268700,3.0892685546875,-0.021932661533355713,0.05644205957651138,0.005471325479447842
1724854956192320500,3.099320556640625,-0.03142816200852394,0.05711664259433746,0.0005873545887880027
1724854956202372600,3.10937255859375,-0.015111975371837616,0.04039601981639862,-0.0074141561053693295
1724854956212424400,3.119424560546875,-0.006519285961985588,0.031203320249915123,-0.007115083280950785
1724854956222476500,3.1294765625,0.0036921994760632515,0.020618047565221786,-0.004014048259705305
1724854956232527600,3.139527587890625,-0.07056205719709396,0.06554238498210907,-0.006810100749135017
1724854956242579500,3.149579345703125,-0.08413323014974594,0.03854101151227951,-0.03940477594733238
1724854956252631600,3.159631591796875,-0.0815528929233551,0.008538372814655304,-0.061157211661338806
1724854956262683600,3.16968359375,-0.0696050375699997,0.005577928386628628,-0.06361637264490128
1724854956272735500,3.179735595703125,-0.055705465376377106,-0.00614424142986536,-0.06772163510322571
1724854956282787600,3.18978759765625,-0.05001943185925484,-0.042687393724918365,-0.07469492405653
1724854956292839400,3.19983935546875,-0.042478691786527634,-0.1048426479101181,-0.08209052681922913
1724854956302891500,3.2098916015625,-0.0950610339641571,-0.12436551600694656,-0.09814563393592834
1724854956312943400,3.219943359375,-0.12317602336406708,-0.15675009787082672,-0.12276522815227509
1724854956322994400,3.229994384765625,-0.17376726865768433,-0.1505291908979416,-0.10862397402524948
1724854956333046500,3.240046630859375,-0.15058231353759766,-0.1817225217819214,-0.1106269359588623
1724854956343098600,3.2500986328125,-0.1446598768234253,-0.1680087149143219,-0.09135140478610992
1724854956353150700,3.260150634765625,-0.14680878818035126,-0.15318290889263153,-0.06973718851804733
1724854956363202600,3.27020263671875,-0.1248798742890358,-0.17525410652160645,-0.0431964136660099
1724854956373254700,3.280254638671875,-0.11462218314409256,-0.17229187488555908,-0.010083204135298729
1724854956383306500,3.290306396484375,-0.10028334707021713,-0.15326666831970215,0.003263966180384159
1724854956393358600,3.300358642578125,-0.08615261316299438,-0.11969564855098724,-0.003615245223045349
1724854956403410400,3.310410400390625,-0.0821976363658905,-0.08870290219783783,-0.01651831716299057
1724854956413461500,3.32046142578125,-0.06619656831026077,-0.08934871852397919,-0.03264082595705986
1724854956423513600,3.330513671875,-0.07567650824785233,-0.09833462536334991,-0.05615606531500816
1724854956433565700,3.340565673828125,-0.1146438866853714,-0.10722185671329498,-0.08803729712963104
1724854956443617500,3.350617431640625,-0.12125569581985474,-0.10582662373781204,-0.09875216335058212
1724854956453669600,3.360669677734375,-0.1087990254163742,-0.11202885955572128,-0.08590614050626755
1724854956463721500,3.370721435546875,-0.09723404049873352,-0.13209760189056396,-0.08179518580436707
1724854956473773600,3.380773681640625,-0.08017942309379578,-0.1252540647983551,-0.07013267278671265
1724854956483825400,3.390825439453125,-0.0600159578025341,-0.10973189771175385,-0.07145750522613525
1724854956493877800,3.400877685546875,-0.04353365674614906,-0.11615011841058731,-0.0759183019399643
1724854956503928300,3.41092822265625,-0.038555316627025604,-0.08536173403263092,-0.09082842618227005
1724854956513980700,3.420980712890625,-0.054157715290784836,-0.06330624222755432,-0.11281149089336395
1724854956524032500,3.431032470703125,-0.07506192475557327,-0.055079732090234756,-0.14850185811519623
1724854956534084600,3.441084716796875,-0.05024899169802666,-0.0636758804321289,-0.15674060583114624
1724854956544136400,3.451136474609375,-0.11405397206544876,-0.06267135590314865,-0.1772967129945755
1724854956554188500,3.4611884765625,-0.16895821690559387,-0.034356892108917236,-0.2103433459997177
1724854956564240400,3.471240478515625,-0.2376222014427185,0.0015075849369168282,-0.21599185466766357
1724854956574292500,3.48129248046875,-0.12906484305858612,0.008505040779709816,-0.15399585664272308
1724854956584344600,3.491344482421875,-0.08796767145395279,-0.04976942017674446,-0.04090449959039688
1724854956594396700,3.501396728515625,-0.18123823404312134,-0.15009015798568726,0.04545329138636589
1724854956604447500,3.511447509765625,-0.2722216546535492,-0.10857881605625153,0.1680876761674881
1724854956614499600,3.52149951171875,-0.32002246379852295,0.060872528702020645,0.3177839517593384
1724854956624551400,3.531551513671875,-0.35138240456581116,0.2395627200603485,0.561519980430603
1724854956634603500,3.541603515625,-0.3662084937095642,0.4093395173549652,0.767678439617157
1724854956644655400,3.5516552734375,-0.3561801016330719,0.4817013144493103,0.8625158667564392
1724854956654707500,3.56170751953125,-0.3566237688064575,0.503983736038208,0.9130674600601196
1724854956664759600,3.571759521484375,-0.31814464926719666,0.26468709111213684,0.787875235080719
1724854956674811600,3.581811767578125,-0.2994537949562073,-0.04624868556857109,0.6205621361732483
1724854956684863500,3.591863525390625,-0.2645508348941803,-0.28834396600723267,0.43151530623435974
1724854956694914600,3.60191455078125,-0.23125359416007996,-0.39956608414649963,0.29431912302970886
1724854956704966700,3.611966552734375,-0.20092035830020905,-0.44640395045280457,0.18379519879817963
1724854956715018500,3.6220185546875,-0.18732652068138123,-0.4295685291290283,0.09022583067417145
1724854956725070600,3.632070556640625,-0.1425047069787979,-0.36134496331214905,0.018697159364819527
1724854956735122400,3.642122314453125,-0.11591118574142456,-0.20602169632911682,-0.015853626653552055
1724854956745174500,3.652174560546875,-0.14636656641960144,0.05973261967301369,0.05981165170669556
1724854956755226600,3.6622265625,-0.16612030565738678,0.41925907135009766,0.15058337152004242
1724854956765278500,3.672278564453125,-0.22017061710357666,0.6161916851997375,0.06341002136468887
1724854956775330600,3.68233056640625,-0.29903560876846313,0.71799236536026,-0.13139301538467407
1724854956785382400,3.69238232421875,-0.35100144147872925,0.6097166538238525,-0.39757949113845825
1724854956795433500,3.70243359375,-0.2842264175415039,0.7348353862762451,-0.5630643367767334
1724854956805485600,3.712485595703125,-0.14030027389526367,0.5231030583381653,-0.6736670732498169
1724854956815537400,3.722537353515625,-0.03770119696855545,0.4588651657104492,-0.5893535614013672
1724854956825589800,3.73258984375,-0.002853352576494217,0.426110178232193,-0.40420812368392944
1724854956835641600,3.7426416015625,-0.05047360062599182,0.46491244435310364,-0.26664599776268005
1724854956845693700,3.752693603515625,-0.12716497480869293,0.5426976084709167,-0.15978403389453888
1724854956855745500,3.76274560546875,-0.2573956847190857,0.5569543242454529,-0.14067985117435455
1724854956865797600,3.772797607421875,-0.42737212777137756,0.5037749409675598,-0.0941963717341423
1724854956875849500,3.782849365234375,-0.32102543115615845,0.22193656861782074,-0.07337284833192825
1724854956885901600,3.792901611328125,-0.2547679841518402,0.0843311995267868,-0.037961166352033615
1724854956895952400,3.802952392578125,-0.2049412727355957,0.034582819789648056,0.001136434730142355
1724854956906004500,3.81300439453125,-0.20127880573272705,0.01559810247272253,0.011878972873091698
1724854956916056600,3.823056640625,-0.18843090534210205,-0.028464961796998978,-0.0016022147610783577
1724854956926108700,3.833108642578125,-0.18482732772827148,-0.08977613598108292,-0.004251429345458746
1724854956936160500,3.843160400390625,-0.1697615534067154,-0.1400558203458786,0.015186450444161892
1724854956946212600,3.853212646484375,-0.16812220215797424,-0.1785418838262558,-0.014715765602886677
1724854956956264400,3.863264404296875,-0.13160547614097595,-0.20029936730861664,-0.021813889965415
1724854956966316500,3.873316650390625,-0.10803256928920746,-0.1729920357465744,0.010680792853236198
1724854956976368400,3.883368408203125,-0.11040624976158142,-0.12768155336380005,0.027246719226241112
1724854956986420700,3.893420654296875,-0.13615283370018005,-0.14690223336219788,0.018901724368333817
1724854956996471600,3.903471435546875,-0.18566712737083435,-0.2026539146900177,0.008828584104776382
1724854957006523600,3.913523681640625,-0.21151717007160187,-0.2762356400489807,0.001453701639547944
1724854957016575500,3.923575439453125,-0.21811115741729736,-0.28887420892715454,-0.007861237041652203
1724854957026627600,3.933627685546875,-0.2054833173751831,-0.3080446124076843,0.004319390282034874
1724854957036679400,3.943679443359375,-0.18325869739055634,-0.2983062267303467,0.046449001878499985
1724854957046731500,3.9537314453125,-0.15892447531223297,-0.2591150999069214,0.09974754601716995
1724854957056783400,3.963783447265625,-0.152963787317276,-0.1927456557750702,0.15517351031303406
1724854957066835700,3.973835693359375,-0.1530589610338211,-0.11569933593273163,0.20126375555992126
1724854957076887600,3.983887451171875,-0.17054420709609985,-0.07933813333511353,0.22816728055477142
1724854957086939600,3.993939697265625,-0.19791249930858612,-0.06563882529735565,0.22060264647006989
1724854957096990500,4.003990478515625,-0.20589372515678406,-0.000006552785634994507,0.20366016030311584
1724854957107042600,4.01404248046875,-0.20640034973621368,-0.04133608937263489,0.15822751820087433
1724854957117094400,4.024094482421875,-0.21589158475399017,-0.05861920490860939,0.10366706550121307
1724854957127146800,4.034146728515625,-0.20603397488594055,-0.0790221318602562,0.05474066361784935
1724854957137198600,4.044198486328125,-0.1960953176021576,-0.10037188977003098,0.0014974139630794525
1724854957147250700,4.054250732421875,-0.18759220838546753,-0.09168960154056549,-0.05176709592342377
1724854957157302500,4.064302490234375,-0.18066160380840302,-0.0867323949933052,-0.12150117009878159
1724854957167354600,4.074354736328125,-0.18526753783226013,-0.056543439626693726,-0.17976027727127075
1724854957177406500,4.084406494140625,-0.17852628231048584,-0.06002046540379524,-0.19090907275676727
1724854957187458600,4.09445849609375,-0.16752666234970093,-0.0518835112452507,-0.17143405973911285
1724854957197509600,4.104509521484375,-0.14782805740833282,-0.025953911244869232,-0.1528734266757965
1724854957207561700,4.114561767578125,-0.11926191300153732,-0.009653883054852486,-0.11574769765138626
1724854957217613800,4.12461376953125,-0.10228479653596878,-0.0007719751447439194,-0.08057959377765656
1724854957227665700,4.134665771484375,-0.08741101622581482,0.006167498417198658,-0.034416209906339645
1724854957237717500,4.144717529296875,-0.07026451826095581,-0.009782440029084682,-0.004366165492683649
1724854957247769600,4.15476953125,-0.027592118829488754,-0.04408639669418335,0.0040556201711297035
1724854957257821400,4.164821533203125,0.022602342069149017,-0.11143693327903748,-0.0040265414863824844
1724854957267873500,4.17487353515625,0.08296681195497513,-0.24280224740505219,-0.000564969377592206
1724854957277925600,4.184925537109375,0.1424700915813446,-0.2877686619758606,0.006394935771822929
1724854957287977700,4.194977783203125,0.20739808678627014,-0.28030821681022644,0.0026164003647863865
1724854957298028800,4.20502880859375,0.2581517994403839,-0.24362583458423615,-0.010781696997582912
1724854957308080600,4.21508056640625,0.30782222747802734,-0.13125745952129364,-0.040057871490716934
1724854957318132700,4.2251328125,0.35457509756088257,-0.08758348226547241,-0.09306889772415161
1724854957328184600,4.2351845703125,0.4145912230014801,-0.09485408663749695,-0.14769260585308075
1724854957338236700,4.245236572265625,0.48510557413101196,-0.03288313001394272,-0.16985996067523956
1724854957348288500,4.25528857421875,0.5724561214447021,0.023941703140735626,-0.20000490546226501
1724854957358340600,4.265340576171875,0.7076070308685303,-0.04666722193360329,-0.2896120250225067
1724854957368392700,4.275392822265625,0.8292271494865417,-0.1595028042793274,-0.5029560327529907
1724854957378444500,4.285444580078125,0.9328497052192688,-0.11465384066104889,-0.7086839079856873
1724854957388496600,4.29549658203125,1.0149521827697754,-0.08606373518705368,-0.9258636832237244
1724854957398547700,4.305547607421875,1.0538220405578613,-0.06827142089605331,-1.138844609260559
1724854957408599600,4.315599609375,1.1190932989120483,-0.10972912609577179,-1.2732269763946533
1724854957418651600,4.325651611328125,1.1878407001495361,-0.11410683393478394,-1.3077287673950195
1724854957428703500,4.335703369140625,1.2937082052230835,-0.19249741733074188,-1.3083783388137817
1724854957438755600,4.345755615234375,1.3707971572875977,-0.3959125876426697,-1.265170693397522
1724854957448807700,4.3558076171875,1.4046083688735962,-0.5664565563201904,-1.2486443519592285
1724854957458859800,4.36585986328125,1.4075647592544556,-0.5872777104377747,-1.311731219291687
1724854957468911600,4.37591162109375,1.3510280847549438,-0.25140610337257385,-1.4001259803771973
1724854957478963700,4.385963623046875,1.1748485565185547,0.080418162047863,-1.408005952835083
1724854957489015600,4.396015625,0.9367785453796387,0.22378133237361908,-1.2397091388702393
1724854957499066600,4.406066650390625,0.8515845537185669,0.10689278692007065,-0.9692725539207458
1724854957509118500,4.416118408203125,0.8565376400947571,-0.006563743110746145,-0.7330546975135803
1724854957519170600,4.426170654296875,0.8804317712783813,-0.13300077617168427,-0.6652271747589111
1724854957529222700,4.43622265625,1.0251699686050415,-0.304990291595459,-0.6762434840202332
1724854957539274800,4.446274658203125,1.0435281991958618,-0.35985007882118225,-0.714131772518158
1724854957549326600,4.45632666015625,1.0523191690444946,-0.392261266708374,-0.7040902972221375
1724854957559378700,4.466378662109375,0.9677666425704956,-0.34108462929725647,-0.6300405859947205
1724854957569430500,4.476430419921875,0.8611096143722534,-0.18563441932201385,-0.5292378664016724
1724854957579482600,4.486482666015625,0.8789804577827454,-0.07590445876121521,-0.39040836691856384
1724854957589534500,4.496534423828125,0.7877107262611389,-0.010070540010929108,-0.3209906816482544
1724854957599585500,4.50658544921875,0.7975902557373047,-0.0492701418697834,-0.27242445945739746
1724854957609637600,4.5166376953125,0.8630273342132568,-0.012969611212611198,-0.2907722592353821
1724854957619689700,4.526689697265625,1.0873382091522217,-0.019575849175453186,-0.30602630972862244
1724854957629741600,4.536741455078125,1.2862544059753418,-0.013529719784855843,-0.3040766716003418
1724854957639793700,4.546793701171875,1.2835297584533691,0.003697737120091915,-0.3432304561138153
1724854957649845500,4.556845458984375,1.2779220342636108,0.08466712385416031,-0.36076533794403076
1724854957659897600,4.566897705078125,1.351902961730957,0.13185355067253113,-0.36990371346473694
1724854957669949400,4.576949462890625,1.4355493783950806,0.16297514736652374,-0.39756420254707336
1724854957680001800,4.587001708984375,1.6209412813186646,0.045288193970918655,-0.43818485736846924
1724854957690052600,4.597052490234375,1.614281415939331,0.047868113964796066,-0.5120385885238647
1724854957700104700,4.607104736328125,1.629956841468811,0.03273230418562889,-0.5619779229164124
1724854957710156800,4.61715673828125,1.6834311485290527,0.12765726447105408,-0.5878068208694458
1724854957720208600,4.627208740234375,1.7071658372879028,0.13496018946170807,-0.630303144454956
1724854957730260700,4.6372607421875,1.8582721948623657,0.23145759105682373,-0.588065505027771
1724854957740312600,4.6473125,1.8084803819656372,0.2579491138458252,-0.5815572738647461
1724854957750364400,4.657364501953125,1.8038692474365234,0.3364748954772949,-0.5472951531410217
1724854957760416500,4.66741650390625,1.7822084426879883,0.4901217222213745,-0.5470792055130005
1724854957770468600,4.677468505859375,1.822867751121521,0.45542407035827637,-0.5505410432815552
1724854957780520700,4.687520751953125,1.8708856105804443,0.516404926776886,-0.5667096376419067
1724854957790571800,4.69757177734375,1.9249666929244995,0.49578341841697693,-0.5529076457023621
1724854957800623600,4.70762353515625,1.935235857963562,0.5148489475250244,-0.5259639024734497
1724854957810675700,4.71767578125,1.8158257007598877,0.5278352499008179,-0.4943520724773407
1724854957820727600,4.7277275390625,1.799416422843933,0.6104276180267334,-0.39990705251693726
1724854957830779600,4.737779541015625,1.7964822053909302,0.5807365775108337,-0.3034481704235077
1724854957840831500,4.74783154296875,1.7756067514419556,0.5560722351074219,-0.19240181148052216
1724854957850883800,4.7578837890625,1.8128881454467773,0.5760968327522278,-0.1169612780213356
1724854957860935700,4.767935791015625,1.6589813232421875,0.5134779214859009,-0.08089328557252884
1724854957870987800,4.77798779296875,1.5542469024658203,0.5161303281784058,-0.051259368658065796
1724854957881039600,4.78803955078125,1.5990694761276245,0.3690918982028961,0.055615413933992386
1724854957891090700,4.798090576171875,1.5382345914840698,0.3880194127559662,0.10245738923549652
1724854957901142500,4.808142578125,1.4362504482269287,0.40686899423599243,0.14911730587482452
1724854957911194600,4.818194580078125,1.3472057580947876,0.41542884707450867,0.18899160623550415
1724854957921246500,4.82824658203125,1.3317126035690308,0.3422454297542572,0.2766309380531311
1724854957931298800,4.838298828125,1.352256417274475,0.35138237476348877,0.3641617000102997
1724854957941350700,4.8483505859375,1.3595808744430542,0.2979130446910858,0.41755223274230957
1724854957951402800,4.85840283203125,1.1374764442443848,0.409254789352417,0.38780635595321655
1724854957961454600,4.86845458984375,1.0186930894851685,0.5072258114814758,0.39652740955352783
1724854957971506700,4.878506591796875,0.9537354111671448,0.4908217191696167,0.38696321845054626
1724854957981558500,4.88855859375,0.8840327858924866,0.5217679142951965,0.3638853132724762
1724854957991609600,4.898609619140625,0.7930610775947571,0.4894030690193176,0.33247053623199463
1724854958001661400,4.908661376953125,0.7029091119766235,0.44616612792015076,0.26546967029571533
1724854958011713500,4.918713623046875,0.6190326809883118,0.41664278507232666,0.19750748574733734
1724854958021765600,4.928765625,0.5275903344154358,0.3915771245956421,0.14361922442913055
1724854958031817700,4.938817626953125,0.41047245264053345,0.35551172494888306,0.11058422923088074
1724854958041869600,4.94886962890625,0.34370672702789307,0.32037559151649475,0.08495636284351349
1724854958051921700,4.958921630859375,0.30667033791542053,0.24879354238510132,0.11400797963142395
1724854958061973500,4.968973388671875,0.15968355536460876,0.3341689109802246,0.04795226454734802
1724854958072025600,4.979025634765625,0.10519272089004517,0.27769017219543457,0.015993822365999222
1724854958082077400,4.989077392578125,0.08614020049571991,0.2943035066127777,-0.005792965181171894
1724854958092127700,4.999127685546875,0.06829679012298584,0.29646581411361694,-0.011829822324216366
1724854958102179800,5.009179931640625,0.04434166103601456,0.2055087685585022,-0.014361689798533916
1724854958112232000,5.01923193359375,0.004801414906978607,0.1831655651330948,0.005019581876695156
1724854958122284000,5.029283935546875,-0.046842336654663086,0.03923289105296135,-0.02273322083055973
1724854958132335900,5.0393359375,-0.11577904224395752,0.035526491701602936,-0.044406332075595856
1724854958142388000,5.049387939453125,-0.13981327414512634,-0.08700794726610184,-0.07264436036348343
1724854958152439800,5.059439697265625,-0.18370717763900757,-0.10179063677787781,-0.060088708996772766
1724854958162492000,5.069491943359375,-0.18043148517608643,-0.08260389417409897,-0.045030660927295685
1724854958172543700,5.079543701171875,-0.19858375191688538,-0.02366788685321808,-0.012009041383862495
1724854958182596000,5.08959619140625,-0.19654163718223572,0.006701469421386719,-0.005345280282199383
1724854958192647000,5.09964697265625,-0.20046032965183258,0.09094218909740448,-0.01954253390431404
1724854958202699000,5.109698974609375,-0.2079925388097763,0.24377566576004028,-0.057882729917764664
1724854958212750800,5.119750732421875,-0.19316592812538147,0.4105890095233917,-0.16268736124038696
1724854958222803000,5.129802978515625,-0.1543029546737671,0.6121599078178406,-0.3024471402168274
1724854958232854800,5.139854736328125,-0.11369766294956207,0.7372335195541382,-0.43620169162750244
1724854958242907000,5.149906982421875,-0.07071904093027115,0.7186723351478577,-0.5297691226005554
1724854958252958700,5.159958740234375,-0.024421844631433487,0.7101888656616211,-0.6052833199501038
1724854958263011000,5.170010986328125,0.02628367394208908,0.6736880540847778,-0.6921032071113586
1724854958273063000,5.18006298828125,0.0864238440990448,0.5625043511390686,-0.7522026300430298
1724854958283114000,5.190114013671875,0.15486307442188263,0.4600861072540283,-0.723569929599762
1724854958293165800,5.200165771484375,0.2588762938976288,0.29878830909729004,-0.6056379675865173
1724854958303218000,5.210218017578125,0.3302479684352875,0.22780227661132812,-0.4531383812427521
1724854958313269800,5.220269775390625,0.4049835801124573,0.20307022333145142,-0.28764256834983826
1724854958323321900,5.23032177734375,0.46523386240005493,0.30188602209091187,-0.11897603422403336
1724854958333373700,5.240373779296875,0.5217127203941345,0.38364899158477783,-0.0016622107941657305
1724854958343426000,5.250426025390625,0.6140492558479309,0.4339475631713867,0.1376062035560608
1724854958353478000,5.260477783203125,0.6503865718841553,0.509361982345581,0.22191573679447174
1724854958363530000,5.270530029296875,0.6945039629936218,0.5415881276130676,0.2643343210220337
1724854958373581000,5.2805810546875,0.733526349067688,0.5664119720458984,0.28081902861595154
1724854958383633000,5.2906328125,0.7344842553138733,0.4526100158691406,0.28204354643821716
1724854958393685000,5.30068505859375,0.7177535891532898,0.39556363224983215,0.262945294380188
1724854958403736800,5.31073681640625,0.7602542042732239,0.32283803820610046,0.27330684661865234
1724854958413788700,5.32078857421875,0.6863414645195007,0.3524802625179291,0.2008807212114334
1724854958423840800,5.3308408203125,0.6611756682395935,0.33675748109817505,0.13696566224098206
1724854958433892900,5.340892822265625,0.6859922409057617,0.34323111176490784,0.10405205190181732
1724854958443945000,5.350945068359375,0.728554904460907,0.4012294113636017,0.1263914555311203
1724854958453996800,5.360996826171875,0.7883110046386719,0.5214503407478333,0.17918774485588074
1724854958464047900,5.3710478515625,0.7832677960395813,0.3193228244781494,0.26759961247444153
1724854958474100000,5.381099853515625,0.7608017325401306,0.45067599415779114,0.30363309383392334
1724854958484151800,5.39115185546875,0.7442829608917236,0.4646599590778351,0.29807400703430176
1724854958494204000,5.401203857421875,0.7113893032073975,0.4360322952270508,0.28298935294151306
1724854958504255700,5.411255859375,0.7128681540489197,0.4326045513153076,0.2720424234867096
1724854958514308000,5.42130810546875,0.6389209628105164,0.4247605800628662,0.2087581902742386
1724854958524360000,5.43135986328125,0.5590080618858337,0.42434433102607727,0.15773095190525055
1724854958534412000,5.441412109375,0.5204757452011108,0.3797994554042816,0.1222616583108902
1724854958544464000,5.4514638671875,0.5121232867240906,0.40696635842323303,0.1441701501607895
1724854958554515700,5.461515625,0.48366686701774597,0.40488359332084656,0.1693914234638214
1724854958564566800,5.47156689453125,0.37700754404067993,0.425022691488266,0.17339389026165009
1724854958574619000,5.481618896484375,0.22799278795719147,0.3114810585975647,0.17155498266220093
1724854958584670700,5.491670654296875,0.1342734843492508,0.1478542983531952,0.19953787326812744
1724854958594723000,5.50172314453125,0.06131061539053917,0.02997603267431259,0.19882160425186157
1724854958604775000,5.51177490234375,-0.006953127682209015,-0.022479185834527016,0.197258859872818
1724854958614827000,5.521826904296875,-0.09862792491912842,0.008648741990327835,0.15597042441368103
1724854958624878800,5.53187890625,-0.07706617563962936,0.20519162714481354,-0.020721526816487312
1724854958634931000,5.541930908203125,0.0759698823094368,0.6841756105422974,-0.3824213147163391
1724854958644982800,5.551982666015625,0.21099162101745605,0.9579469561576843,-0.6640495657920837
1724854958655033900,5.562033935546875,0.19483144581317902,0.9251206517219543,-0.8372153043746948
1724854958665085700,5.572085693359375,0.42497995495796204,0.8172652721405029,-0.853417694568634
1724854958675137800,5.5821376953125,0.6160086989402771,0.9774981141090393,-0.8046399354934692
1724854958685190000,5.59218994140625,0.7294687032699585,1.111336350440979,-0.5928618907928467
1724854958695242000,5.602241943359375,0.6650758981704712,1.0672527551651,-0.4244579076766968
1724854958705293800,5.6122939453125,0.5133880972862244,0.9481524229049683,-0.2932799160480499
1724854958715346000,5.622345947265625,0.37873995304107666,0.6651552319526672,-0.2619762122631073
1724854958725397800,5.632397705078125,0.29425331950187683,0.8745777010917664,-0.2863720953464508
1724854958735449900,5.642449951171875,0.10720273852348328,0.5621405243873596,-0.36949265003204346
1724854958745501000,5.6525009765625,0.13713108003139496,0.8325989246368408,-0.35329264402389526
1724854958755552800,5.662552734375,0.2630397081375122,0.8318287134170532,-0.34348198771476746
1724854958765604900,5.67260498046875,0.4422459602355957,0.7967580556869507,-0.30922412872314453
1724854958775657000,5.682656982421875,0.582004964351654,0.7003957629203796,-0.25420770049095154
1724854958785708800,5.692708740234375,0.6961193084716797,0.4928737282752991,-0.1974613517522812
1724854958795761000,5.702760986328125,0.843375027179718,0.3595423102378845,-0.08479656279087067
1724854958805812700,5.712812744140625,0.9633136987686157,0.32374703884124756,0.03379426524043083
1724854958815864800,5.72286474609375,0.8376169800758362,0.12281498312950134,-0.03739834576845169
1724854958825916700,5.732916748046875,0.7323986887931824,0.4753807485103607,0.01849661022424698
1724854958835967700,5.7429677734375,0.7026453614234924,0.3387458026409149,0.05156739801168442
1724854958846020000,5.75302001953125,0.6868120431900024,0.20174536108970642,0.11532880365848541
1724854958856072000,5.763072021484375,0.6885844469070435,0.17758645117282867,0.1357724517583847
1724854958866124000,5.7731240234375,0.7091498970985413,0.177299365401268,0.1387980729341507
1724854958876176000,5.78317578125,0.7724285125732422,0.15017256140708923,0.14923210442066193
1724854958886228000,5.79322802734375,0.8180426359176636,0.10103671252727509,0.1977948546409607
1724854958896279800,5.80327978515625,0.8203469514846802,0.07719389349222183,0.2273140400648117
1724854958906332000,5.813331787109375,0.8158701658248901,0.04577551409602165,0.2173072099685669
1724854958916384000,5.823384033203125,0.8152715563774109,-0.006467815488576889,0.18206289410591125
1724854958926434800,5.833434814453125,0.802338182926178,-0.01954074017703533,0.12526646256446838
1724854958936487000,5.84348681640625,0.7695004940032959,0.015500006265938282,0.08870117366313934
1724854958946539000,5.8535390625,0.7283653020858765,0.013905839063227177,0.07993937283754349
1724854958956590800,5.8635908203125,0.6758814454078674,0.07417984306812286,0.08120887726545334
1724854958966643000,5.873642822265625,0.64363032579422,0.07312816381454468,0.07970792055130005
1724854958976694800,5.88369482421875,0.5524179339408875,-0.30929192900657654,0.026676414534449577
1724854958986747000,5.893746826171875,0.4677528440952301,0.0841432511806488,0.056032706052064896
1724854958996798700,5.903798828125,0.445942759513855,0.018992409110069275,-0.0463298000395298
1724854959006849800,5.913849853515625,0.44126492738723755,0.013739323243498802,-0.06611122936010361
1724854959016902000,5.92390185546875,0.4812244176864624,-0.02144492417573929,-0.06750893592834473
1724854959026954000,5.9339541015625,0.4939311742782593,-0.009748054668307304,-0.03494672477245331
1724854959037005800,5.944005859375,0.456845223903656,0.016477851197123528,0.003963731694966555
1724854959047058000,5.954057861328125,0.4463212192058563,-0.002740317489951849,0.02984725870192051
1724854959057109800,5.96410986328125,0.44883689284324646,-0.008766614831984043,0.04194791242480278
1724854959067161900,5.974161865234375,0.45832306146621704,-0.011271584779024124,0.07190820574760437
1724854959077213700,5.984213623046875,0.451241672039032,0.011602669954299927,0.12998425960540771
1724854959087266000,5.99426611328125,0.43028444051742554,0.01138322427868843,0.1589711606502533
1724854959097316900,6.00431689453125,0.3968239426612854,-0.008353379555046558,0.1904953271150589
1724854959107368700,6.01436865234375,0.41748154163360596,-0.08692009001970291,0.19517983496189117
1724854959117420800,6.0244208984375,0.45053204894065857,-0.11819067597389221,0.19925537705421448
1724854959127472600,6.03447265625,0.48400479555130005,-0.11099588125944138,0.221780925989151
1724854959137524700,6.044524658203125,0.5102965831756592,-0.09711518883705139,0.2724185585975647
1724854959147576800,6.054576904296875,0.48531052470207214,-0.10937664657831192,0.32836678624153137
1724854959157628700,6.064628662109375,0.47195956110954285,-0.12036097049713135,0.3530021607875824
1724854959167680800,6.0746806640625,0.4786140024662018,-0.09451019763946533,0.38613054156303406
1724854959177731800,6.08473193359375,0.4577183127403259,-0.09990008920431137,0.3858755826950073
1724854959187783700,6.09478369140625,0.419271320104599,-0.11970122158527374,0.32855209708213806
1724854959197835800,6.104835693359375,0.3654654622077942,-0.14795410633087158,0.31121137738227844
1724854959207887600,6.1148876953125,0.3469272255897522,-0.1571798175573349,0.3268049657344818
1724854959217940000,6.12493994140625,0.33769160509109497,-0.15376105904579163,0.4040432274341583
1724854959227991800,6.13499169921875,0.27910685539245605,-0.22197288274765015,0.4558611512184143
1724854959238044000,6.1450439453125,0.2537997364997864,-0.2742721438407898,0.4330306351184845
1724854959248095700,6.155095703125,0.2886144518852234,-0.3164491653442383,0.40018215775489807
1724854959258146800,6.165146728515625,0.32555994391441345,-0.3018811345100403,0.4047156572341919
1724854959268198700,6.17519873046875,0.3329656720161438,-0.26353296637535095,0.4452766478061676
1724854959278250800,6.185250732421875,0.28524088859558105,-0.25694015622138977,0.46168792247772217
1724854959288302600,6.195302490234375,0.22775550186634064,-0.24060297012329102,0.48199957609176636
1724854959298355000,6.20535498046875,0.20417004823684692,-0.21957498788833618,0.49691280722618103
1724854959308406800,6.21540673828125,0.24348390102386475,-0.22821667790412903,0.5317983627319336
1724854959318459000,6.225458984375,0.2739563584327698,-0.21497467160224915,0.5675244927406311
1724854959328510700,6.2355107421875,0.2735808491706848,-0.22983510792255402,0.5977217555046082
1724854959338561800,6.245561767578125,0.2858786880970001,-0.2729576528072357,0.6201406121253967
1724854959348613600,6.255613525390625,0.33122727274894714,-0.29680386185646057,0.6730738878250122
1724854959358665700,6.265665771484375,0.36212587356567383,-0.2943762540817261,0.7381361722946167
1724854959368717600,6.275717529296875,0.3919681906700134,-0.31085139513015747,0.7494761347770691
1724854959378769700,6.285769775390625,0.422589510679245,-0.3419330418109894,0.7633092999458313
1724854959388821800,6.29582177734375,0.43311193585395813,-0.34548357129096985,0.7866157293319702
1724854959398873900,6.305873779296875,0.42160022258758545,-0.34277674555778503,0.8267021179199219
1724854959408925700,6.31592578125,0.41720283031463623,-0.3776284456253052,0.8566772937774658
1724854959418976800,6.325976806640625,0.4334094226360321,-0.40575650334358215,0.8962748050689697
1724854959429028900,6.33602880859375,0.4331902265548706,-0.39347878098487854,0.9395411014556885
1724854959439080700,6.346080810546875,0.41495975852012634,-0.4011722803115845,0.9635067582130432
1724854959449132800,6.3561328125,0.416074275970459,-0.4084656238555908,0.9957064986228943
1724854959459184600,6.3661845703125,0.4401721656322479,-0.40495410561561584,1.029290795326233
1724854959469236700,6.37623681640625,0.47211864590644836,-0.3920596241950989,1.030996561050415
1724854959479288800,6.386288818359375,0.4711555242538452,-0.367633581161499,1.0399845838546753
1724854959489340700,6.396340576171875,0.42796358466148376,-0.37101179361343384,1.0440986156463623
1724854959499391700,6.406391845703125,0.3703395426273346,-0.43011578917503357,1.0597500801086426
1724854959509443800,6.41644384765625,0.34397876262664795,-0.4887881577014923,1.0681883096694946
1724854959519495700,6.42649560546875,0.33749064803123474,-0.4806700348854065,1.0799585580825806
1724854959529547800,6.4365478515625,0.3136172592639923,-0.4381100535392761,1.0831804275512695
1724854959539599600,6.446599609375,0.28640660643577576,-0.44370168447494507,1.0701926946640015
1724854959549652000,6.45665185546875,0.2580428719520569,-0.4791792631149292,1.074793815612793
1724854959559703800,6.466703857421875,0.20993532240390778,-0.512393057346344,1.036368489265442
1724854959569756000,6.476755859375,0.17306599020957947,-0.5360986590385437,0.9380937814712524
1724854959579806700,6.486806640625,0.11975163221359253,-0.5207003951072693,0.9440780282020569
1724854959589858800,6.49685888671875,0.048897165805101395,-0.5152089595794678,0.8799360394477844
1724854959599910700,6.50691064453125,-0.0208798348903656,-0.5196875333786011,0.880429744720459
1724854959609962800,6.516962646484375,-0.09670056402683258,-0.5308176875114441,0.900679886341095
1724854959620014600,6.5270146484375,-0.12533164024353027,-0.5423532128334045,0.9501417279243469
1724854959630066700,6.537066650390625,-0.13786101341247559,-0.5363235473632812,0.9860219955444336
1724854959640118800,6.547118896484375,-0.18357494473457336,-0.41966450214385986,0.9355675578117371
1724854959650171000,6.5571708984375,-0.23910370469093323,-0.34533700346946716,0.9353760480880737
1724854959660221700,6.5672216796875,-0.26077863574028015,-0.3128211796283722,0.8944379091262817
1724854959670273800,6.577273681640625,-0.256681889295578,-0.284854531288147,0.8935598731040955
1724854959680325600,6.58732568359375,-0.24401505291461945,-0.2488487809896469,0.8635593056678772
1724854959690377700,6.597377685546875,-0.2314361333847046,-0.2376752346754074,0.8829386234283447
1724854959700429600,6.6074296875,-0.2373276948928833,-0.25316599011421204,0.8921789526939392
1724854959710481700,6.617481689453125,-0.26855966448783875,-0.3342283368110657,0.8966725468635559
1724854959720533800,6.62753369140625,-0.32243677973747253,-0.3647499680519104,0.8877482414245605
1724854959730585900,6.6375859375,-0.3632239103317261,-0.39638248085975647,0.9259791970252991
1724854959740637000,6.647636962890625,-0.4212147295475006,-0.3809991776943207,0.9306092858314514
1724854959750688800,6.657688720703125,-0.42434555292129517,-0.309702605009079,0.9660280346870422
1724854959760740900,6.667740966796875,-0.43517810106277466,-0.2411872297525406,0.9590697288513184
1724854959770792700,6.677792724609375,-0.44595858454704285,-0.18102189898490906,0.9458915591239929
1724854959780844800,6.6878447265625,-0.43037480115890503,-0.08939214795827866,0.933831512928009
1724854959790896600,6.697896728515625,-0.4222548305988312,-0.15330347418785095,0.9178959727287292
1724854959800948700,6.70794873046875,-0.43674495816230774,-0.06712096184492111,0.9061722755432129
1724854959811000800,6.718000732421875,-0.4253479838371277,0.025933077558875084,0.9297798275947571
1724854959821052700,6.728052734375,-0.44879183173179626,0.01632849872112274,0.9299253821372986
1724854959831103700,6.738103759765625,-0.4853426516056061,-0.05979583039879799,0.9467155337333679
1724854959841155800,6.74815576171875,-0.4583548605442047,0.07094186544418335,0.9047929644584656
1724854959851207700,6.758207763671875,-0.46555018424987793,0.04526926577091217,0.866441011428833
1724854959861259800,6.768259765625,-0.5015915632247925,-0.11498311161994934,0.8401519656181335
1724854959871311600,6.7783115234375,-0.4942782521247864,0.08475290238857269,0.8116177916526794
1724854959881363700,6.78836376953125,-0.5221090316772461,0.1254289150238037,0.8152145147323608
1724854959891415800,6.798415771484375,-0.590842068195343,-0.07825471460819244,0.8036150932312012
1724854959901467000,6.808466796875,-0.6124129891395569,0.19168595969676971,0.8041799664497375
1724854959911518700,6.818518798828125,-0.625248372554779,0.23587578535079956,0.7970008850097656
1724854959921570800,6.82857080078125,-0.6713192462921143,-0.016473356634378433,0.7342538833618164
1724854959931622700,6.83862255859375,-0.6617603302001953,0.1425011157989502,0.71708744764328
1724854959941674800,6.8486748046875,-0.6472163796424866,0.15656903386116028,0.7050447463989258
1724854959951726600,6.8587265625,-0.6310701966285706,0.04798823222517967,0.6702753305435181
1724854959961778700,6.86877880859375,-0.6435150504112244,-0.23652681708335876,0.6168395280838013
1724854959971830800,6.878830810546875,-0.6545671820640564,-0.023573532700538635,0.5928356647491455
1724854959981883000,6.8888828125,-0.6393733620643616,-0.04325459524989128,0.5697596073150635
1724854959991933700,6.89893359375,-0.6189437508583069,-0.11581987887620926,0.5186096429824829
1724854960001985800,6.90898583984375,-0.6431559324264526,-0.243317648768425,0.41400018334388733
1724854960012037600,6.91903759765625,-0.6091702580451965,-0.0842457190155983,0.3683197796344757
1724854960022089700,6.92908984375,-0.5812966227531433,-0.1605173647403717,0.31548938155174255
1724854960032141600,6.9391416015625,-0.5457634329795837,-0.29837802052497864,0.26757487654685974
1724854960042193700,6.949193603515625,-0.5687987804412842,-0.3887900412082672,0.22434410452842712
1724854960052245800,6.959245849609375,-0.6398633718490601,-0.4541431963443756,0.21079021692276
1724854960062297900,6.9692978515625,-0.7137727737426758,-0.45866844058036804,0.1593744307756424
1724854960072349000,6.979348876953125,-0.795806884765625,-0.3538232743740082,0.1053793728351593
1724854960082400800,6.98940087890625,-0.8030257821083069,-0.3091976046562195,0.0880625769495964
1724854960092453400,6.999453369140625,-0.7671761512756348,-0.3460879921913147,0.0951889306306839
1724854960102505500,7.00950537109375,-0.7144955992698669,-0.39027702808380127,0.055625274777412415
1724854960112557600,7.0195576171875,-0.6902017593383789,-0.4141349494457245,-0.0003754119388759136
1724854960122609700,7.029609619140625,-0.6993764042854309,-0.39575573801994324,-0.048016659915447235
1724854960132661500,7.03966162109375,-0.6657254695892334,-0.37874239683151245,-0.04954078420996666
1724854960142712600,7.049712646484375,-0.6551005244255066,-0.40959489345550537,-0.05368593707680702
1724854960152764700,7.0597646484375,-0.661801278591156,-0.3784249722957611,-0.038598332554101944
1724854960162816500,7.06981640625,-0.6774018406867981,-0.3568016588687897,-0.016071775928139687
1724854960172868600,7.07986865234375,-0.728657603263855,-0.34468185901641846,0.009645303711295128
1724854960182920400,7.08992041015625,-0.7375349998474121,-0.32309049367904663,0.03081204742193222
1724854960192972500,7.09997265625,-0.7308206558227539,-0.31420567631721497,0.05477410554885864
1724854960203024600,7.110024658203125,-0.7120572924613953,-0.308649480342865,0.05555064231157303
1724854960213076500,7.120076416015625,-0.6793289184570312,-0.3077589273452759,0.05521535128355026
1724854960223128600,7.130128662109375,-0.6411742568016052,-0.2792506515979767,0.03315511718392372
1724854960233179600,7.1401796875,-0.5666664838790894,-0.30203530192375183,0.030300740152597427
1724854960243231500,7.1502314453125,-0.5140867233276367,-0.3124285936355591,0.03151172026991844
1724854960253283600,7.16028369140625,-0.46238330006599426,-0.30599918961524963,0.02246789261698723
1724854960263335400,7.17033544921875,-0.4241679310798645,-0.3304501473903656,0.04460962861776352
1724854960273387500,7.180387451171875,-0.42718103528022766,-0.3639892041683197,0.13028991222381592
1724854960283439600,7.190439697265625,-0.49050307273864746,-0.3747710585594177,0.17138706147670746
1724854960293491700,7.20049169921875,-0.6517055630683899,-0.2456253319978714,0.14569447934627533
1724854960303543600,7.21054345703125,-0.7467474341392517,-0.20392461121082306,0.13756288588047028
1724854960313594600,7.2205947265625,-0.7344244122505188,-0.1777806133031845,0.14859050512313843
1724854960323646500,7.230646484375,-0.68337082862854,-0.19162963330745697,0.1474480777978897
1724854960333698600,7.240698486328125,-0.5954364538192749,-0.21029892563819885,0.1313742995262146
1724854960343750400,7.25075048828125,-0.5009546279907227,-0.13519534468650818,0.10667689889669418
1724854960353802500,7.260802490234375,-0.41915374994277954,-0.050691910088062286,0.10083711892366409
1724854960363854600,7.2708544921875,-0.3934444189071655,0.011044922284781933,0.1392255425453186
1724854960373906700,7.28090673828125,-0.46180909872055054,-0.006550050340592861,0.2011895775794983
1724854960383958500,7.29095849609375,-0.5066764950752258,-0.18865276873111725,0.30262327194213867
1724854960394009600,7.301009521484375,-0.5185153484344482,-0.11265573650598526,0.42996230721473694
1724854960404061400,7.3110615234375,-0.5831681489944458,-0.04598146304488182,0.5618405342102051
1724854960414113500,7.321113525390625,-0.5955970883369446,0.06498180329799652,0.582023561000824
1724854960424165400,7.331165283203125,-0.5644494891166687,0.12336093932390213,0.5205738544464111
1724854960434217500,7.341217529296875,-0.4779452085494995,0.1734480857849121,0.4176040589809418
1724854960444269300,7.351269287109375,-0.3330504894256592,0.17118330299854279,0.3295740485191345
1724854960454321700,7.36132177734375,-0.24205642938613892,0.14042432606220245,0.29147088527679443
1724854960464373500,7.37137353515625,-0.21307413280010223,0.15289579331874847,0.23921285569667816
1724854960474424600,7.381424560546875,-0.21478627622127533,0.2200402170419693,0.18756218254566193
1724854960484476700,7.3914765625,-0.1736552119255066,0.23817704617977142,0.16336290538311005
1724854960494528500,7.401528564453125,-0.21149607002735138,0.23740394413471222,0.08844312280416489
1724854960504580600,7.41158056640625,-0.2012520283460617,0.1264687478542328,0.03914818540215492
1724854960514632400,7.421632568359375,-0.18486346304416656,-0.06403087824583054,-0.03232705965638161
1724854960524684500,7.4316845703125,-0.054552629590034485,-0.07714530825614929,-0.101438008248806
1724854960534736600,7.441736572265625,-0.033501140773296356,-0.11033175885677338,-0.13828709721565247
1724854960544788500,7.45178857421875,-0.021102331578731537,-0.21813653409481049,-0.09888506680727005
1724854960554839600,7.461839599609375,-0.02304697223007679,-0.22726692259311676,0.006554537918418646
1724854960564891600,7.4718916015625,-0.022544879466295242,-0.13009043037891388,0.10396697372198105
1724854960574943500,7.481943603515625,-0.015880584716796875,-0.05061505362391472,0.1829688549041748
1724854960584995600,7.49199560546875,-0.029429011046886444,0.013536958023905754,0.2444373369216919
1724854960595047400,7.50204736328125,0.014467340894043446,0.06805053353309631,0.28436213731765747
1724854960605099500,7.512099609375,0.08899907767772675,0.12593743205070496,0.3123038411140442
1724854960615151600,7.522151611328125,0.1278812289237976,0.18378742039203644,0.28388527035713196
1724854960625203700,7.53220361328125,0.245993971824646,0.11448100209236145,0.29353606700897217
1724854960635254500,7.542254638671875,0.30469509959220886,0.08066045492887497,0.2608414888381958
1724854960645306600,7.552306640625,0.35654428601264954,0.11984709650278091,0.20556697249412537
1724854960655358500,7.5623583984375,0.39758893847465515,0.18170113861560822,0.1665189117193222
1724854960665410600,7.57241064453125,0.3894844949245453,0.1750929057598114,0.16691531240940094
1724854960675462400,7.58246240234375,0.3374713361263275,0.011855247430503368,0.16723808646202087
1724854960685514500,7.592514404296875,0.2997101843357086,-0.16589181125164032,0.15642854571342468
1724854960695566600,7.602566650390625,0.281978577375412,-0.20450179278850555,0.14751839637756348
1724854960705618700,7.61261865234375,0.22012726962566376,-0.1961178332567215,0.09038396179676056
1724854960715669500,7.62266943359375,0.224515900015831,-0.14411401748657227,0.08992163836956024
1724854960725721600,7.6327216796875,0.24723774194717407,-0.06070584058761597,0.09093645960092545
1724854960735773400,7.6427734375,0.2767234444618225,0.0020997533574700356,0.08275602757930756
1724854960745825500,7.652825439453125,0.3084011375904083,0.05410873517394066,0.049979597330093384
1724854960755877400,7.66287744140625,0.335395485162735,0.1378510296344757,-0.014210042543709278
1724854960765929500,7.672929443359375,0.3556196093559265,0.23156847059726715,-0.10278676450252533
1724854960775981300,7.682981201171875,0.34235307574272156,0.24996237456798553,-0.1967577338218689
1724854960786033700,7.69303369140625,0.30129820108413696,0.19546443223953247,-0.3026531934738159
1724854960796084700,7.703084716796875,0.25968924164772034,0.08878805488348007,-0.41477733850479126
1724854960806136600,7.713136474609375,0.22013717889785767,-0.027400944381952286,-0.501865029335022
1724854960816188700,7.723188720703125,0.19795331358909607,-0.11266285181045532,-0.5717296004295349
1724854960826240500,7.733240478515625,0.18266485631465912,-0.1343996226787567,-0.6196256875991821
1724854960836292600,7.743292724609375,0.17763067781925201,-0.12361328303813934,-0.6477524042129517
1724854960846344400,7.753344482421875,0.17167875170707703,-0.09671650826931,-0.6606409549713135
1724854960856396500,7.763396484375,0.17326892912387848,-0.07861872762441635,-0.6553226113319397
1724854960866448600,7.77344873046875,0.18303026258945465,-0.08429362624883652,-0.6409304141998291
1724854960876499700,7.783499755859375,0.20313660800457,-0.10157327353954315,-0.6388528943061829
1724854960886551600,7.793551513671875,0.21504782140254974,-0.12185025960206985,-0.625167191028595
1724854960896603600,7.803603759765625,0.21691523492336273,-0.1538262963294983,-0.6190927624702454
1724854960906655500,7.813655517578125,0.19654732942581177,-0.1808783859014511,-0.6227602958679199
1724854960916707600,7.82370751953125,0.16078054904937744,-0.1885267049074173,-0.6270671486854553
1724854960926759400,7.833759521484375,0.13776230812072754,-0.19878214597702026,-0.6330714225769043
1724854960936811500,7.8438115234375,0.1295965164899826,-0.20252494513988495,-0.6259759664535522
1724854960946863600,7.853863525390625,0.12970320880413055,-0.24326540529727936,-0.5955927968025208
1724854960956914400,7.86391455078125,0.15156535804271698,-0.34055468440055847,-0.5867742300033569
1724854960966966500,7.873966552734375,0.17022208869457245,-0.34332507848739624,-0.6100428700447083
1724854960977018600,7.8840185546875,0.19535832107067108,-0.26575013995170593,-0.6542611718177795
1724854960987070500,7.894070556640625,0.25904715061187744,-0.1102166473865509,-0.6970844268798828
1724854960997122600,7.90412255859375,0.31587156653404236,-0.037595439702272415,-0.6897194385528564
1724854961007174400,7.91417431640625,0.3560597002506256,-0.060858529061079025,-0.6764416694641113
1724854961017226500,7.9242265625,0.3168121576309204,-0.13782095909118652,-0.6294360756874084
1724854961027277600,7.934277587890625,0.27492719888687134,-0.11608048528432846,-0.5692808032035828
1724854961037329400,7.944329345703125,0.2773869037628174,-0.15280094742774963,-0.5252854228019714
1724854961047381800,7.9543818359375,0.23163719475269318,-0.1602032482624054,-0.48455095291137695
1724854961057433600,7.96443359375,0.2199552357196808,-0.13075214624404907,-0.45192456245422363
1724854961067485700,7.974485595703125,0.22779275476932526,-0.11829139292240143,-0.43306204676628113
1724854961077537500,7.98453759765625,0.250354528427124,-0.1495925933122635,-0.4295663833618164
1724854961087589400,7.99458935546875,0.22343339025974274,-0.09189168363809586,-0.3929083049297333
1724854961097641000,8.004640869140625,0.27844712138175964,-0.11222279071807861,-0.3529062867164612
1724854961107692000,8.014692138671874,0.2841245234012604,-0.12823143601417542,-0.3203127682209015
1724854961117743900,8.024743896484376,0.23073294758796692,0.06434334069490433,-0.28930026292800903
1724854961127796000,8.0347958984375,0.24058614671230316,0.2454209178686142,-0.28548312187194824
1724854961137847800,8.044847900390625,0.2338709831237793,0.26096099615097046,-0.33519983291625977
1724854961147900200,8.054900146484375,0.26498931646347046,0.2776052951812744,-0.37783581018447876
1724854961157952000,8.064951904296874,0.2409212738275528,0.27854007482528687,-0.4235228896141052
1724854961168004000,8.075004150390624,0.23467403650283813,0.3085229992866516,-0.4542735815048218
1724854961178056000,8.085055908203126,0.24203580617904663,0.3570671081542969,-0.45955702662467957
1724854961188107000,8.09510693359375,0.2648470997810364,0.3318733870983124,-0.4836256206035614
1724854961198159000,8.1051591796875,0.28257548809051514,0.34091615676879883,-0.49116262793540955
1724854961208211000,8.1152109375,0.291128545999527,0.37225404381752014,-0.5003920197486877
1724854961218262800,8.1252626953125,0.32341963052749634,0.3759204149246216,-0.5067806839942932
1724854961228315000,8.13531494140625,0.37082329392433167,0.33966755867004395,-0.4940997362136841
1724854961238367000,8.145366943359376,0.42348119616508484,0.2990754246711731,-0.48111626505851746
1724854961248419000,8.155419189453125,0.42669928073883057,0.3147033154964447,-0.4632430076599121
1724854961258470100,8.16547021484375,0.45432931184768677,0.2907010316848755,-0.4512326717376709
1724854961268522000,8.17552197265625,0.5373669266700745,0.22567203640937805,-0.414064884185791
1724854961278574000,8.185573974609374,0.5527709126472473,0.28293317556381226,-0.37527433037757874
1724854961288626000,8.1956259765625,0.5581045746803284,0.36843016743659973,-0.33605891466140747
1724854961298678000,8.205677978515626,0.5930787920951843,0.38081198930740356,-0.25896361470222473
1724854961308729900,8.215729736328125,0.5971636176109314,0.4391484260559082,-0.20967479050159454
1724854961318782200,8.2257822265625,0.634764552116394,0.44065868854522705,-0.19821439683437347
1724854961328834000,8.235833984375,0.6193318963050842,0.4979180693626404,-0.237838014960289
1724854961338885000,8.245885009765624,0.6600500345230103,0.5215061902999878,-0.29674339294433594
1724854961348937000,8.25593701171875,0.6433687210083008,0.5672827363014221,-0.3242141902446747
1724854961358989000,8.265989013671875,0.683035671710968,0.5210984349250793,-0.2903776466846466
1724854961369041000,8.276041015625,0.7931249737739563,0.40273451805114746,-0.2212769091129303
1724854961379093000,8.286093017578125,0.7750951051712036,0.3848572373390198,-0.15393222868442535
1724854961389144800,8.296144775390625,0.7607694268226624,0.3926905691623688,-0.1165521889925003
1724854961399197200,8.306197265625,0.7675629258155823,0.38898611068725586,-0.10138921439647675
1724854961409248000,8.316248046875,0.8425917029380798,0.32855311036109924,-0.0767134428024292
1724854961419300000,8.326300048828125,0.9302451610565186,0.35885536670684814,-0.08395031094551086
1724854961429352000,8.33635205078125,0.9142640829086304,0.38985294103622437,-0.10990678519010544
1724854961439404000,8.346404052734375,0.9264799952507019,0.4248269200325012,-0.13016678392887115
1724854961449455900,8.356455810546874,0.8754308223724365,0.49723589420318604,-0.15336136519908905
1724854961459508000,8.366508056640624,0.9212356209754944,0.4517594575881958,-0.13894779980182648
1724854961469559800,8.376559814453126,0.9431667923927307,0.47127005457878113,-0.14354224503040314
1724854961479612200,8.386612060546875,0.8072825074195862,0.5266685485839844,-0.20094454288482666
1724854961489663000,8.3966630859375,0.7698716521263123,0.5637472867965698,-0.26467862725257874
1724854961499715000,8.406715087890625,0.7954143285751343,0.577856719493866,-0.3058713376522064
1724854961509767200,8.41676708984375,0.8098934888839722,0.592341423034668,-0.34531521797180176
1724854961519819000,8.426819091796874,0.7528325915336609,0.7090648412704468,-0.4287882447242737
1724854961529871000,8.43687109375,0.7114235162734985,0.7842680811882019,-0.50108802318573
1724854961539923000,8.4469228515625,0.6399462223052979,0.806674599647522,-0.5741981863975525
1724854961549975000,8.45697509765625,0.6193323731422424,0.9380558133125305,-0.6358334422111511
1724854961560025900,8.46702587890625,0.46634870767593384,0.9479537010192871,-0.7325751185417175
1724854961570078000,8.477077880859374,0.43730825185775757,0.954073965549469,-0.8144987225532532
1724854961580130000,8.487130126953126,0.5088503360748291,0.7889339923858643,-0.8393892049789429
1724854961590182100,8.49718212890625,0.4390551745891571,0.6923195123672485,-0.9005741477012634
1724854961600234000,8.50723388671875,0.3745017349720001,0.8591141104698181,-0.9526152610778809
1724854961610286000,8.5172861328125,0.25211289525032043,0.8272176384925842,-1.0379139184951782
1724854961620338000,8.527337890625,0.28072646260261536,0.8875507116317749,-1.0352870225906372
1724854961630389000,8.537388916015624,0.3190833330154419,0.9627625346183777,-0.9647148847579956
1724854961640440800,8.54744091796875,0.25346970558166504,1.0744880437850952,-0.9741840362548828
1724854961650493000,8.557492919921875,0.25719955563545227,1.1721982955932617,-0.9373472332954407
1724854961660545000,8.567544921875,0.3331632912158966,1.0428035259246826,-0.9185365438461304
1724854961670597000,8.57759716796875,0.389372318983078,1.0465826988220215,-0.9038367867469788
1724854961680649000,8.58764892578125,0.4415644407272339,1.0963318347930908,-0.8075227737426758
1724854961690701000,8.597701171875,0.6408718228340149,1.0346654653549194,-0.6303811073303223
1724854961700752100,8.607752197265626,0.6407772302627563,0.9638745784759521,-0.6044608354568481
1724854961710804000,8.617803955078125,0.5609205961227417,0.9587565660476685,-0.7045208811759949
1724854961720856000,8.62785595703125,0.5492820739746094,0.8427697420120239,-0.7298923134803772
1724854961730908000,8.637907958984375,0.5067921876907349,0.7640300393104553,-0.651747465133667
1724854961740960000,8.6479599609375,0.4871428906917572,0.8327089548110962,-0.49150076508522034
1724854961751012000,8.65801220703125,0.5058309435844421,0.6899117231369019,-0.4165629744529724
1724854961761064000,8.66806396484375,0.4543781280517578,0.6105585694313049,-0.4316284954547882
1724854961771115000,8.678114990234375,0.46861931681632996,0.4275398552417755,-0.3914410173892975
1724854961781167000,8.6881669921875,0.4508672058582306,0.3698403239250183,-0.31745174527168274
1724854961791219000,8.698218994140625,0.4323854148387909,0.284650057554245,-0.2215220034122467
1724854961801271000,8.70827099609375,0.42335543036460876,0.06109793484210968,-0.17398963868618011
1724854961811323000,8.718322998046874,0.39290764927864075,-0.11058273911476135,-0.19445130228996277
1724854961821375000,8.728375,0.3238745331764221,-0.42561498284339905,-0.18065959215164185
1724854961831427000,8.738427001953125,0.310843288898468,-0.2992480397224426,-0.09760667383670807
1724854961841478100,8.74847802734375,0.2925713360309601,-0.15025484561920166,-0.20563779771327972
1724854961851530000,8.758530029296875,0.2979365885257721,-0.2164505571126938,-0.24983176589012146
1724854961861582000,8.76858203125,0.30961480736732483,-0.25345277786254883,-0.19392162561416626
1724854961871634000,8.778634033203126,0.34613481163978577,-0.23923206329345703,-0.11992619931697845
1724854961881686000,8.78868603515625,0.4116440713405609,-0.40363726019859314,-0.008410324342548847
1724854961891737900,8.79873779296875,0.2726115882396698,-0.12069740146398544,0.013533096760511398
1724854961901789000,8.808788818359375,0.1947365254163742,-0.08796954900026321,0.0075790672563016415
1724854961911841000,8.818841064453125,0.09727289527654648,-0.14412349462509155,0.04460297152400017
1724854961921892900,8.828892822265624,-0.010296438820660114,-0.08981898427009583,0.04020902141928673
1724854961931945000,8.838945068359376,0.00975042860955,-0.11794508248567581,0.06408300250768661
1724854961941997000,8.8489970703125,0.010367482900619507,0.046852655708789825,-0.01670638658106327
1724854961952049000,8.859048828125,0.1596219688653946,0.0905776396393776,-0.025660503655672073
1724854961962101000,8.86910107421875,0.27347370982170105,-0.4492826461791992,0.16034477949142456
1724854961972152000,8.879152099609374,0.13988953828811646,0.18972180783748627,0.10367884486913681
1724854961982204000,8.889203857421874,0.2210879921913147,0.05293599143624306,0.19322815537452698
1724854961992256000,8.899256103515626,0.21095995604991913,-0.00981059018522501,0.24505043029785156
1724854962002307800,8.909307861328125,0.1240176111459732,-0.10198179632425308,0.30398592352867126
1724854962012360200,8.919360107421875,0.04573379084467888,-0.19460172951221466,0.34959858655929565
1724854962022412000,8.929412109375,0.04208020120859146,-0.2327464520931244,0.34246426820755005
1724854962032464100,8.939464111328125,0.09976381063461304,-0.32648953795433044,0.3144972622394562
1724854962042515000,8.949514892578126,0.13536281883716583,-0.301460862159729,0.31291109323501587
1724854962052567000,8.959567138671876,0.17193837463855743,-0.2903490364551544,0.3526619076728821
1724854962062619000,8.969618896484375,0.17866924405097961,-0.2674106955528259,0.4001769423484802
1724854962072671000,8.9796708984375,0.16762085258960724,-0.280178964138031,0.42201730608940125
1724854962082722800,8.989722900390625,0.15331222116947174,-0.34553346037864685,0.41319239139556885
1724854962092775400,8.999775390625,0.1358235776424408,-0.40336742997169495,0.39748576283454895
1724854962102826200,9.009826171875,0.09210991114377975,-0.4247978925704956,0.45454666018486023
1724854962112878300,9.01987841796875,0.025508616119623184,-0.44064614176750183,0.504051923751831
1724854962122930400,9.029930419921875,-0.020922530442476273,-0.5206043720245361,0.5210950970649719
1724854962132982500,9.039982421875,-0.043883856385946274,-0.5431627631187439,0.5549106597900391
1724854962143034400,9.050034423828125,-0.055322930216789246,-0.5856974124908447,0.5953297019004822
1724854962153086500,9.06008642578125,-0.07144731283187866,-0.6216467022895813,0.6038590669631958
1724854962163138300,9.07013818359375,-0.08181286603212357,-0.6283786296844482,0.6203081011772156
1724854962173189400,9.080189453125,-0.0833616554737091,-0.6320452690124512,0.6461788415908813
1724854962183241500,9.090241455078125,-0.0786752924323082,-0.6130633354187012,0.6658992767333984
1724854962193293300,9.100293212890625,-0.0913938507437706,-0.575335681438446,0.7074980735778809
1724854962203345400,9.110345458984375,-0.1030246764421463,-0.5886946320533752,0.7471061944961548
1724854962213397500,9.1203974609375,-0.11501473188400269,-0.5978643894195557,0.7682172060012817
1724854962223449300,9.130449462890626,-0.12979020178318024,-0.5821256041526794,0.8171189427375793
1724854962233500400,9.14050048828125,-0.14752689003944397,-0.6652610301971436,0.8499654531478882
1724854962243552500,9.150552490234375,-0.1991613209247589,-0.7218822240829468,0.8571693301200867
1724854962253604400,9.160604248046875,-0.25128817558288574,-0.7396200895309448,0.892005980014801
1724854962263656400,9.170656494140625,-0.29266437888145447,-0.7060701251029968,0.9357550740242004
1724854962273708300,9.180708251953124,-0.3030153214931488,-0.6745007634162903,0.9593087434768677
1724854962283760400,9.190760498046876,-0.29149580001831055,-0.672207236289978,0.9790425300598145
1724854962293812500,9.2008125,-0.28266966342926025,-0.6513993740081787,1.016855239868164
1724854962303863600,9.210863525390625,-0.2722945213317871,-0.5620700120925903,1.0427550077438354
1724854962313915400,9.220915283203125,-0.27441444993019104,-0.4385848641395569,1.156136393547058
1724854962323967500,9.230967529296874,-0.31670811772346497,-0.2685537338256836,1.2145369052886963
1724854962334019300,9.241019287109374,-0.3670479357242584,-0.19294163584709167,1.2240132093429565
1724854962344071400,9.251071533203126,-0.4041295349597931,-0.2617398500442505,1.2602587938308716
1724854962354123300,9.261123291015625,-0.4093487560749054,-0.3093835115432739,1.2837495803833008
1724854962364175400,9.27117529296875,-0.38240712881088257,-0.34243014454841614,1.3089632987976074
1724854962374226400,9.281226318359375,-0.37167444825172424,-0.35387009382247925,1.3266105651855469
1724854962384278300,9.2912783203125,-0.422125905752182,-0.3750342130661011,1.336919903755188
1724854962394330600,9.30133056640625,-0.4582166075706482,-0.3370107114315033,1.3770325183868408
1724854962404382500,9.311382568359376,-0.5104187726974487,-0.5038217902183533,1.4258372783660889
1724854962414434600,9.3214345703125,-0.534497082233429,-0.4516555368900299,1.3722811937332153
1724854962424486400,9.331486328125,-0.5290860533714294,-0.5052044987678528,1.346892237663269
1724854962434537500,9.341537353515625,-0.5480989217758179,-0.6379116773605347,1.2691291570663452
1724854962444589300,9.35158935546875,-0.5156722664833069,-0.6111298203468323,1.1721144914627075
1724854962454641400,9.361641357421876,-0.49209028482437134,-0.6028966307640076,1.0891523361206055
1724854962464693200,9.371693359375,-0.5499996542930603,-0.5954427123069763,0.9971127510070801
1724854962474745600,9.38174560546875,-0.5875789523124695,-0.46001386642456055,0.9537678360939026
1724854962484797400,9.39179736328125,-0.6261700391769409,-0.47944483160972595,0.9180756211280823
1724854962494848500,9.4018486328125,-0.636283278465271,-0.7550511360168457,0.8459203839302063
1724854962504900400,9.411900390625,-0.7252919673919678,-0.8399487137794495,0.5988669395446777
1724854962514952400,9.421952392578126,-0.7927137017250061,-0.7172857522964478,0.43573901057243347
1724854962525004300,9.43200439453125,-0.9321739077568054,-0.6497751474380493,0.3444189429283142
1724854962535056400,9.442056396484375,-1.0712275505065918,-0.781376838684082,0.2358085811138153
1724854962545108200,9.452108154296875,-1.0230720043182373,-0.862970769405365,0.2078954577445984
1724854962555160600,9.46216064453125,-0.9151630401611328,-0.7075201869010925,0.2449677288532257
1724854962565211400,9.47221142578125,-0.8678275346755981,-0.37465912103652954,0.2540009021759033
1724854962575263500,9.482263427734376,-0.9363545775413513,-0.06590388715267181,0.25785037875175476
1724854962585315600,9.492315673828125,-1.0522031784057617,-0.09381541609764099,0.3097633719444275
1724854962595367400,9.502367431640625,-1.1249247789382935,0.08486048877239227,0.4370124340057373
1724854962605419500,9.51241943359375,-1.1769105195999146,0.1254449337720871,0.5464398860931396
1724854962615471400,9.522471435546874,-1.194502353668213,0.28179049491882324,0.650442361831665
1724854962625522400,9.5325224609375,-1.2409271001815796,0.20510052144527435,0.7704603672027588
1724854962635574300,9.54257421875,-1.2573320865631104,0.18361444771289825,0.876928448677063
1724854962645626400,9.55262646484375,-1.1964503526687622,0.31044483184814453,0.9678266644477844
1724854962655678500,9.562678466796875,-1.1351372003555298,0.37545737624168396,0.9873020052909851
1724854962665730600,9.57273046875,-1.1087247133255005,0.3349727988243103,0.9324187636375427
1724854962675782400,9.582782470703124,-1.0576786994934082,0.473798930644989,0.8377785086631775
1724854962685833500,9.59283349609375,-1.0408052206039429,0.32120057940483093,0.7942606210708618
1724854962695885300,9.60288525390625,-1.011410117149353,0.262640118598938,0.8008621335029602
1724854962705937400,9.6129375,-0.9999554753303528,0.19018323719501495,0.7223249673843384
1724854962715989200,9.6229892578125,-0.9859676361083984,0.05813068151473999,0.6460655331611633
1724854962726041300,9.633041259765625,-0.8626278638839722,-0.09807303547859192,0.5798125267028809
1724854962736093400,9.643093505859374,-0.7971086502075195,-0.25020912289619446,0.5036834478378296
1724854962746145500,9.6531455078125,-0.7375656962394714,-0.2569573223590851,0.41823649406433105
1724854962756196600,9.663196533203125,-0.6526113152503967,-0.2454809844493866,0.3186984360218048
1724854962766248400,9.67324853515625,-0.6015869975090027,-0.2242065817117691,0.2705034911632538
1724854962776300500,9.683300537109375,-0.5315402746200562,-0.24570520222187042,0.2114400714635849
1724854962786352400,9.693352294921874,-0.48843780159950256,-0.22771422564983368,0.19831067323684692
1724854962796404500,9.703404541015624,-0.415437251329422,-0.11214777827262878,0.17073209583759308
1724854962806456300,9.713456298828126,-0.3701115846633911,-0.031280361115932465,0.11690881848335266
1724854962816507400,9.72350732421875,-0.33606189489364624,0.06516480445861816,0.013100218959152699
1724854962826559200,9.733559326171875,-0.29054102301597595,0.10618174076080322,-0.09054548293352127
1724854962836611600,9.743611572265625,-0.1685979962348938,0.08460105210542679,-0.1579011082649231
1724854962846663400,9.753663330078124,-0.04784335196018219,0.11337384581565857,-0.20396314561367035
1724854962856715500,9.763715576171874,0.04344749078154564,0.13749878108501434,-0.18822212517261505
1724854962866767400,9.773767333984376,0.1178538128733635,0.07210221141576767,-0.14527066051959991
1724854962876818400,9.783818359375,0.1633628010749817,0.0446707159280777,-0.1117587462067604
1724854962886870300,9.793870361328125,0.19609038531780243,0.21252816915512085,-0.07881437987089157
1724854962896922400,9.80392236328125,0.16613788902759552,0.5567320585250854,0.02028280682861805
1724854962906974200,9.81397412109375,0.08993659168481827,0.7792484760284424,0.1766015738248825
1724854962917026600,9.824026611328126,0.005362251773476601,0.8174917697906494,0.2555926442146301
1724854962927078400,9.834078369140625,-0.017659176141023636,0.7919174432754517,0.2878376543521881
1724854962937129500,9.84412939453125,0.05260801315307617,0.6894539594650269,0.3173094689846039
1724854962947181600,9.854181640625,0.11787250638008118,0.6018908619880676,0.35959699749946594
1724854962957233400,9.8642333984375,0.18697375059127808,0.5132419466972351,0.38720929622650146
1724854962967285500,9.874285400390624,0.2630269527435303,0.3957374095916748,0.3972129225730896
1724854962977337300,9.88433740234375,0.3246256709098816,0.3194366693496704,0.40954071283340454
1724854962987389400,9.894389404296875,0.3537779450416565,0.26120635867118835,0.4060639441013336
1724854962997440300,9.904440185546875,0.3895326852798462,0.2882288694381714,0.3658176362514496
1724854963007492400,9.914492431640625,0.3620017170906067,0.3643758296966553,0.2280229926109314
1724854963017544400,9.92454443359375,0.3111915588378906,0.37872403860092163,0.09502626210451126
1724854963027596500,9.934596435546876,0.26943904161453247,0.2770985960960388,0.051055338233709335
1724854963037648400,9.9446484375,0.23852963745594025,0.16736476123332977,0.021925194188952446
1724854963047700500,9.954700439453125,0.22847780585289001,0.1442543864250183,-0.018329551443457603
1724854963057752300,9.96475244140625,0.22874853014945984,0.15322773158550262,-0.03794188052415848
1724854963067803400,9.974803466796875,0.2337411642074585,0.11603429913520813,-0.05202388018369675
1724854963077855200,9.984855224609374,0.23218704760074615,0.05855579301714897,-0.0722537711262703
1724854963087907300,9.9949072265625,0.2262687087059021,0.03436044603586197,-0.08153781294822693
1724854963097962800,10.004962646484374,0.23797163367271423,0.061320703476667404,-0.09157729893922806
1724854963108014800,10.015014892578124,0.25265949964523315,0.12217313051223755,-0.1007380411028862
1724854963118066000,10.02506591796875,0.27537932991981506,0.14241278171539307,-0.14314614236354828
1724854963128117800,10.03511767578125,0.3035326898097992,0.1433776468038559,-0.19405193626880646
1724854963138169900,10.045169921875,0.3594612181186676,0.12436168640851974,-0.28943854570388794
1724854963148222000,10.055221923828125,0.4155644476413727,0.055583417415618896,-0.38990336656570435
1724854963158274000,10.065274169921874,0.4533904790878296,-0.01750786416232586,-0.4520428776741028
1724854963168326000,10.075325927734376,0.47756239771842957,-0.13146905601024628,-0.49749183654785156
1724854963178377000,10.085376953125,0.4844934940338135,-0.2006155550479889,-0.544586181640625
1724854963188428800,10.0954287109375,0.4872554838657379,-0.212225079536438,-0.6096959114074707
1724854963198481000,10.10548095703125,0.5570918917655945,-0.18587444722652435,-0.6245705485343933
1724854963208532700,10.11553271484375,0.562811017036438,-0.18470798432826996,-0.5834686160087585
1724854963218584800,10.125584716796874,0.5752859115600586,-0.22150132060050964,-0.5688307881355286
1724854963228637000,10.135636962890626,0.5691729187965393,-0.25394606590270996,-0.555939257144928
1724854963238687700,10.145687744140625,0.6041390299797058,-0.19090893864631653,-0.47214412689208984
1724854963248739800,10.15573974609375,0.6974723935127258,-0.05140404403209686,-0.3911970853805542
1724854963258792000,10.1657919921875,0.8082116842269897,0.006212446838617325,-0.33477237820625305
1724854963268843800,10.17584375,0.8915483951568604,-0.015178062953054905,-0.31599363684654236
1724854963278895900,10.185895751953124,0.8946868777275085,-0.020234864205121994,-0.3178132176399231
1724854963288947700,10.19594775390625,0.8699122667312622,0.0371493324637413,-0.32522159814834595
1724854963298998800,10.205998779296875,0.8650665879249573,0.08125296235084534,-0.3148370385169983
1724854963309051000,10.21605078125,0.8959214091300964,0.05739476904273033,-0.29926127195358276
1724854963319102700,10.226102783203125,0.8271586894989014,0.03723887354135513,-0.27641212940216064
1724854963329155000,10.236155029296874,0.7541601657867432,0.037367239594459534,-0.26528117060661316
1724854963339207000,10.24620703125,0.6293696165084839,0.15490049123764038,-0.2561248242855072
1724854963349259000,10.256259033203126,0.5807746648788452,0.1772817075252533,-0.21939344704151154
1724854963359309800,10.266309814453125,0.5559607148170471,0.15291827917099,-0.16988739371299744
1724854963369362000,10.27636181640625,0.4897359311580658,0.23115715384483337,-0.1394679695367813
1724854963379413800,10.286413818359375,0.49722859263420105,0.2122691124677658,-0.1363280564546585
1724854963389465900,10.2964658203125,0.5410757064819336,0.08226344734430313,-0.13294290006160736
1724854963399517700,10.306517578125,0.5625922083854675,-0.04335075244307518,-0.1258692443370819
1724854963409570000,10.316570068359376,0.5013208389282227,0.021354742348194122,-0.13554051518440247
1724854963419620900,10.326620849609375,0.49686041474342346,0.03437597304582596,-0.13514702022075653
1724854963429673000,10.3366728515625,0.5651407241821289,0.07055022567510605,-0.12548746168613434
1724854963439724800,10.346724853515624,0.5788075923919678,0.1901155710220337,-0.1350797861814499
1724854963449777000,10.35677685546875,0.618774950504303,0.2259443998336792,-0.15943972766399384
1724854963459828700,10.366828857421876,0.7659299969673157,0.16852569580078125,-0.14720097184181213
1724854963469879800,10.3768798828125,0.8115078806877136,0.17189140617847443,-0.12691408395767212
1724854963479932000,10.386931884765625,0.8516109585762024,0.28892725706100464,-0.14327752590179443
1724854963489983700,10.396983642578125,0.992411732673645,0.2713490426540375,-0.15295597910881042
1724854963500035800,10.407035888671874,0.9480903148651123,0.4530957043170929,-0.19836339354515076
1724854963510088000,10.417087890625,0.8647448420524597,0.6507842540740967,-0.2977309823036194
1724854963520140000,10.42714013671875,0.8101192116737366,0.6705189943313599,-0.36978423595428467
1724854963530190800,10.43719091796875,0.7353019714355469,0.6926797032356262,-0.47774532437324524
1724854963540243000,10.447242919921875,0.7134228348731995,0.6746001243591309,-0.5907285213470459
1724854963550294800,10.457294677734374,0.6406311988830566,0.7161651253700256,-0.7391765713691711
1724854963560347000,10.467346923828124,0.5680658221244812,0.7090616822242737,-0.847571849822998
1724854963570398700,10.477398681640626,0.568462610244751,0.662493109703064,-0.9157295823097229
1724854963580450800,10.487450927734375,0.5846866965293884,0.6631914973258972,-0.9779186248779297
1724854963590502000,10.497501953125,0.4988082945346832,0.7340698838233948,-1.056936264038086
1724854963600554000,10.507553955078125,0.5172311067581177,0.6522527933120728,-1.102780818939209
1724854963610606000,10.517606201171875,0.5400818586349487,0.5388258099555969,-1.1108797788619995
1724854963620658000,10.527657958984374,0.5599920153617859,0.64613276720047,-1.1474578380584717
1724854963630709800,10.537709716796876,0.44287315011024475,0.7205974459648132,-1.2204958200454712
1724854963640760800,10.5477607421875,0.45621058344841003,0.8039846420288086,-1.2921860218048096
1724854963650813000,10.55781298828125,0.49367672204971313,0.7605308890342712,-1.3803032636642456
1724854963660864800,10.56786474609375,0.4538778066635132,0.8731703162193298,-1.5023009777069092
1724854963670916900,10.577916748046874,0.332059770822525,1.0670984983444214,-1.5770668983459473
1724854963680968700,10.58796875,0.3573497235774994,1.1629115343093872,-1.550910472869873
1724854963691021000,10.59802099609375,0.4581005871295929,1.1269880533218384,-1.4902385473251343
1724854963701072000,10.60807177734375,0.46795332431793213,1.0470157861709595,-1.560913324356079
1724854963711124000,10.6181240234375,0.4493740499019623,0.8782520294189453,-1.6148372888565063
1724854963721175800,10.62817578125,0.41223591566085815,0.8930065035820007,-1.5588492155075073
1724854963731228000,10.638227783203124,0.45146268606185913,0.9195497035980225,-1.4932312965393066
1724854963741279700,10.64827978515625,0.4111601412296295,0.8843320608139038,-1.503730297088623
1724854963751330800,10.658330810546875,0.39482566714286804,0.9158844351768494,-1.456958532333374
1724854963761383000,10.6683828125,0.503018856048584,0.7787871360778809,-1.3598520755767822
1724854963771434800,10.678434814453125,0.4146822988986969,0.8515390753746033,-1.376238226890564
1724854963781487000,10.688487060546874,0.3861095607280731,0.7943653464317322,-1.342488408088684
1724854963791539000,10.6985390625,0.3119865953922272,0.8881299495697021,-1.2937108278274536
1724854963801591000,10.708591064453126,0.286784291267395,0.7844275832176208,-1.2534964084625244
1724854963811641900,10.718641845703125,0.4108678698539734,0.5215125679969788,-1.0727825164794922
1724854963821694000,10.72869384765625,0.3975660800933838,0.6521040797233582,-0.9249470233917236
1724854963831745800,10.738745849609375,0.2830301821231842,0.33083152770996094,-0.8006485104560852
1724854963841798000,10.7487978515625,0.35061177611351013,-0.11523759365081787,-0.7314746975898743
1724854963851849700,10.758849609375,0.26512429118156433,0.26185083389282227,-0.7225650548934937
1724854963861900800,10.76890087890625,0.1836577206850052,0.23165054619312286,-0.7085067629814148
1724854963871953000,10.778952880859375,0.22843638062477112,0.03513695299625397,-0.6063380837440491
1724854963882005000,10.7890048828125,0.314386785030365,-0.10356596857309341,-0.47432613372802734
1724854963892056800,10.799056884765625,0.43399521708488464,-0.473139226436615,-0.3734232187271118
1724854963902109000,10.80910888671875,0.5484534502029419,-0.17388130724430084,-0.24088574945926666
1724854963912160800,10.819160888671876,0.5517206192016602,-0.025492360815405846,-0.20606304705142975
1724854963922211800,10.8292119140625,0.572593092918396,-0.04467502236366272,-0.08140238374471664
1724854963932264000,10.839263916015625,0.5986811518669128,-0.0855201929807663,-0.035002924501895905
1724854963942315800,10.849315673828125,0.6006003022193909,-0.1466609388589859,0.0396474152803421
1724854963952367900,10.859367919921874,0.5679696798324585,-0.10047347843647003,0.1280774027109146
1724854963962420000,10.869419921875,0.5236487984657288,-0.1584196537733078,0.2617017924785614
1724854963972470800,10.879470703125,0.48551684617996216,-0.24504615366458893,0.35549888014793396
1724854963982523000,10.88952294921875,0.43900662660598755,-0.36871206760406494,0.40507158637046814
1724854963992575000,10.899574951171875,0.43028903007507324,-0.4545132517814636,0.42321598529815674
1724854964002626800,10.909626708984375,0.4407326281070709,-0.48755598068237305,0.46180403232574463
1724854964012679000,10.919678955078124,0.42169129848480225,-0.4975939691066742,0.5159572958946228
1724854964022730000,10.92972998046875,0.41095030307769775,-0.5178364515304565,0.5744603872299194
1724854964032781800,10.93978173828125,0.40392062067985535,-0.4870918393135071,0.6531684994697571
1724854964042834000,10.949833984375,0.3863042891025543,-0.45339399576187134,0.7485532164573669
1724854964052885800,10.9598857421875,0.3397336006164551,-0.46877986192703247,0.8247028589248657
1724854964062937900,10.969937744140625,0.27915093302726746,-0.5023545026779175,0.8649963736534119
1724854964072990000,10.979989990234374,0.2419910728931427,-0.5983744859695435,0.8908636569976807
1724854964083041000,10.990041015625,0.20019330084323883,-0.6345222592353821,0.9628560543060303
1724854964093092900,11.0000927734375,0.15700721740722656,-0.6736350059509277,1.0026577711105347
1724854964103142100,11.01014208984375,0.10534247756004333,-0.7192242741584778,1.0334161520004272
1724854964113194200,11.0201943359375,0.04696279019117355,-0.7787808179855347,1.0893687009811401
1724854964123246000,11.03024609375,-0.007764248177409172,-0.8325280547142029,1.1095926761627197
1724854964133297200,11.040297119140625,-0.06161230057477951,-0.8324254751205444,1.1545875072479248
1724854964143349200,11.050349365234375,-0.11350307613611221,-0.8164850473403931,1.217396855354309
1724854964153401000,11.060401123046875,-0.16478464007377625,-0.8267261981964111,1.243848443031311
1724854964163453400,11.070453369140624,-0.22162599861621857,-0.839239776134491,1.2875797748565674
1724854964173505300,11.08050537109375,-0.2967231273651123,-0.8642112016677856,1.3039240837097168
1724854964183556400,11.090556396484375,-0.3633299767971039,-0.9203975796699524,1.3117899894714355
1724854964193608200,11.100608154296875,-0.40848812460899353,-0.9952633380889893,1.310994029045105
1724854964203660300,11.110660400390625,-0.45720046758651733,-1.0271860361099243,1.3010313510894775
1724854964213712100,11.120712158203125,-0.5193600058555603,-0.9863371253013611,1.2659945487976074
1724854964223764200,11.13076416015625,-0.5764328241348267,-0.888700544834137,1.2521106004714966
1724854964233815300,11.140815185546876,-0.6492500305175781,-0.8347702026367188,1.2559938430786133
1724854964243867100,11.1508671875,-0.7032756805419922,-0.7780234217643738,1.224524736404419
1724854964253919500,11.16091943359375,-0.7548725605010986,-0.8099552392959595,1.242478609085083
1724854964263971300,11.170971435546875,-0.7992255687713623,-0.795511782169342,1.166452169418335
1724854964274023200,11.181023193359374,-0.8329712748527527,-0.7415652275085449,1.1198197603225708
1724854964284075300,11.1910751953125,-0.8910135626792908,-0.8078204989433289,1.0806301832199097
1724854964294126300,11.201126220703125,-0.9208255410194397,-0.7049087285995483,1.0154753923416138
1724854964304178200,11.21117822265625,-0.9472786784172058,-0.7120292782783508,0.9523772597312927
1724854964314230300,11.221230224609375,-0.9923407435417175,-0.6996793746948242,0.9228878021240234
1724854964324282000,11.2312822265625,-1.0516998767852783,-0.7176365256309509,0.8811415433883667
1724854964334334200,11.241334228515624,-1.086307406425476,-0.6217731237411499,0.8409006595611572
1724854964344385000,11.251385009765626,-1.0893899202346802,-0.5730493664741516,0.7952258586883545
1724854964354437400,11.261437255859375,-1.0879480838775635,-0.6039140820503235,0.7583994269371033
1724854964364489200,11.2714892578125,-1.0768948793411255,-0.6269513368606567,0.7358967065811157
1724854964374541300,11.281541259765625,-1.1035747528076172,-0.6381885409355164,0.7181600332260132
1724854964384593200,11.29159326171875,-1.10821533203125,-0.4592165946960449,0.6743007898330688
1724854964394644200,11.301644287109376,-1.1372182369232178,-0.41651278734207153,0.6537939310073853
1724854964404696300,11.3116962890625,-1.1680368185043335,-0.40210652351379395,0.6591401696205139
1724854964414748200,11.321748046875,-1.2031463384628296,-0.41878747940063477,0.6810590624809265
1724854964424800300,11.33180029296875,-1.2522368431091309,-0.33881625533103943,0.6896973848342896
1724854964434852400,11.341852294921875,-1.2053276300430298,-0.20817624032497406,0.6762740015983582
1724854964444903200,11.351903076171874,-1.120696783065796,-0.1871589571237564,0.6704763174057007
1724854964454955300,11.361955322265626,-1.0451372861862183,-0.14587409794330597,0.687786877155304
1724854964465007400,11.37200732421875,-0.986831784248352,-0.09765181690454483,0.7119231820106506
1724854964475059200,11.38205908203125,-0.9374964237213135,-0.057442620396614075,0.7175435423851013
1724854964485111300,11.392111328125,-0.9153521656990051,-0.030992139130830765,0.720237672328949
1724854964495163100,11.4021630859375,-0.853341281414032,-0.00015113595873117447,0.7469497323036194
1724854964505214200,11.412214111328124,-0.8262498378753662,0.014561950229108334,0.7556581497192383
1724854964515266300,11.422266357421876,-0.8505703210830688,-0.02015395276248455,0.7143410444259644
1724854964525318100,11.432318115234375,-0.8182411789894104,0.14904677867889404,0.6470634937286377
1724854964535370200,11.442370361328125,-0.7498389482498169,0.19404195249080658,0.6072907447814941
1724854964545422300,11.45242236328125,-0.7307866811752319,0.13462872803211212,0.5943731665611267
1724854964555473400,11.462473388671874,-0.6819424033164978,0.06477641314268112,0.6211835145950317
1724854964565525200,11.472525146484376,-0.5800657868385315,-0.009185113944113255,0.6429416537284851
1724854964575577300,11.482577392578126,-0.5848038196563721,0.02432863600552082,0.6370344758033752
1724854964585629200,11.492629150390625,-0.622819721698761,0.09589500725269318,0.6281499862670898
1724854964595681300,11.502681396484375,-0.6032833456993103,0.21091054379940033,0.6053876876831055
1724854964605732000,11.512732177734375,-0.6320854425430298,0.24320848286151886,0.6114513874053955
1724854964615784200,11.5227841796875,-0.7162045836448669,0.16611424088478088,0.5810223817825317
1724854964625836000,11.5328359375,-0.6826228499412537,0.21103668212890625,0.5280210971832275
1724854964635888400,11.542888427734376,-0.730055570602417,0.24686525762081146,0.476389080286026
1724854964645940200,11.552940185546875,-0.7369778752326965,0.2131393402814865,0.42510247230529785
1724854964655991300,11.5629912109375,-0.6426268219947815,0.2420005351305008,0.4070560932159424
1724854964666043400,11.57304345703125,-0.526253879070282,0.21608935296535492,0.4075441360473633
1724854964676095200,11.58309521484375,-0.4788093864917755,0.15063869953155518,0.42156675457954407
1724854964686147300,11.593147216796876,-0.35719063878059387,0.20719483494758606,0.4628155827522278
1724854964696199200,11.60319921875,-0.23230677843093872,0.1845710128545761,0.4820747673511505
1724854964706250200,11.613250244140625,-0.17326360940933228,0.21796539425849915,0.43805062770843506
1724854964716302000,11.623302001953125,-0.21885159611701965,0.24767296016216278,0.33541932702064514
1724854964726354400,11.6333544921875,-0.1501282900571823,0.3645627498626709,0.25498008728027344
1724854964736406300,11.64340625,-0.09872101992368698,0.3026067018508911,0.19559291005134583
1724854964746458400,11.653458251953126,-0.0632096454501152,0.1912498027086258,0.16611099243164062
1724854964756509200,11.66350927734375,-0.06778335571289062,0.06848874688148499,0.1469905525445938
1724854964766561300,11.673561279296875,-0.020014792680740356,-0.03830697759985924,0.18252097070217133
1724854964776613000,11.683613037109374,-0.0012464318424463272,-0.0840049535036087,0.22246704995632172
1724854964786665200,11.693665283203124,0.021615346893668175,-0.003928770311176777,0.23061774671077728
1724854964796717000,11.703717041015626,0.11053776741027832,0.13578811287879944,0.23338769376277924
1724854964806768000,11.71376806640625,0.15487487614154816,0.15897679328918457,0.21055828034877777
1724854964816820200,11.7238203125,0.16548117995262146,0.13248419761657715,0.16079498827457428
1724854964826872300,11.733872314453125,0.20167098939418793,0.16978801786899567,0.10339956730604172
1724854964836924400,11.74392431640625,0.22457842528820038,0.11548642814159393,0.05598171800374985
1724854964846976300,11.753976318359374,0.18933913111686707,0.03263555467128754,-0.023759830743074417
1724854964857027300,11.76402734375,0.16894331574440002,0.02625994384288788,-0.11371342837810516
1724854964867079200,11.7740791015625,0.14380565285682678,0.027454011142253876,-0.20066283643245697
1724854964877131300,11.78413134765625,0.12683333456516266,0.019078902900218964,-0.2910737097263336
1724854964887183000,11.79418310546875,0.0903192088007927,-0.004643798340111971,-0.3686259984970093
1724854964897235200,11.804235107421874,0.08406530320644379,-0.03067193739116192,-0.44295534491539
1724854964907286300,11.814286376953126,0.11878553032875061,-0.07849133014678955,-0.5102313756942749
1724854964917338000,11.824338134765625,0.12854601442813873,-0.10709954053163528,-0.5401032567024231
1724854964927390500,11.834390380859375,0.1828891783952713,-0.14603184163570404,-0.5716450810432434
1724854964937442300,11.8444423828125,0.2245202511548996,-0.16336077451705933,-0.5820305943489075
1724854964947494100,11.854494140625,0.27360185980796814,-0.21977272629737854,-0.5760139226913452
1724854964957545200,11.864545166015626,0.31658902764320374,-0.24326686561107635,-0.6065217852592468
1724854964967597300,11.874597412109376,0.33497434854507446,-0.1708616018295288,-0.6314657330513
1724854964977649200,11.884649169921875,0.3483463525772095,-0.04929947853088379,-0.6486780047416687
1724854964987701200,11.894701171875,0.36959850788116455,0.044516950845718384,-0.6584539413452148
1724854964997753000,11.904753173828125,0.39957186579704285,0.03926652669906616,-0.6663134694099426
1724854965007804200,11.91480419921875,0.43816977739334106,-0.018383260816335678,-0.6490663886070251
1724854965017856300,11.924856201171876,0.5035421252250671,-0.11888856440782547,-0.621292769908905
1724854965027908400,11.934908447265625,0.513567328453064,-0.15385358035564423,-0.5893476009368896
1724854965037960200,11.944960205078125,0.5002837777137756,-0.09716552495956421,-0.6019571423530579
1724854965048012300,11.95501220703125,0.5087047815322876,-0.10670634359121323,-0.6536667943000793
1724854965058063400,11.9650634765625,0.48785436153411865,-0.08087580651044846,-0.7022364139556885
1724854965068115200,11.975115234375,0.5344947576522827,-0.09038116037845612,-0.7627424597740173
1724854965078167300,11.985167236328126,0.5542343854904175,-0.12376335263252258,-0.7884172201156616
1724854965088219100,11.99521923828125,0.5292861461639404,-0.1220940351486206,-0.7909606099128723
1724854965098270200,12.005270263671875,0.5412687659263611,-0.10948237031698227,-0.7833290696144104
1724854965108321300,12.0153212890625,0.5382331013679504,-0.05050065740942955,-0.7550556659698486
1724854965118373000,12.025373046875,0.5658332705497742,-0.0018753306940197945,-0.733962893486023
1724854965128425500,12.035425537109376,0.5997097492218018,0.11003167182207108,-0.7195578813552856
1724854965138477300,12.045477294921875,0.661403477191925,0.07920664548873901,-0.716396152973175
1724854965148529400,12.055529296875,0.6866192817687988,0.18955954909324646,-0.6803073883056641
1724854965158580200,12.065580322265625,0.7553780674934387,0.11889683455228806,-0.6702517867088318
1724854965168632300,12.07563232421875,0.7731624841690063,0.08352333307266235,-0.6199511885643005
1724854965178684200,12.08568408203125,0.7399904727935791,0.1896103471517563,-0.6033626198768616
1724854965188736300,12.095736328125,0.822239875793457,0.30266281962394714,-0.6014893651008606
1724854965198787300,12.105787353515625,0.8543744087219238,0.35148200392723083,-0.6236258149147034
1724854965208839200,12.115839111328125,0.8808155059814453,0.43335074186325073,-0.6445843577384949
1724854965218891300,12.125891357421875,0.9007545709609985,0.42556232213974,-0.6327119469642639
1724854965228943400,12.135943359375,0.9091363549232483,0.44029372930526733,-0.6411503553390503
1724854965238995200,12.1459951171875,0.8851231336593628,0.42716434597969055,-0.6534168720245361
1724854965249046300,12.15604638671875,0.8727896213531494,0.4574218988418579,-0.6910042762756348
1724854965259098400,12.166098388671875,0.9724312424659729,0.3711157739162445,-0.709889829158783
1724854965269150200,12.176150146484375,0.9847505688667297,0.36400243639945984,-0.7261829972267151
1724854965279202300,12.186202392578124,0.9568113088607788,0.4191490709781647,-0.7446709275245667
1724854965289254100,12.196254150390626,0.9625266790390015,0.4437277019023895,-0.72650146484375
1724854965299305200,12.20630517578125,0.9875041842460632,0.48413345217704773,-0.7263514995574951
1724854965309357000,12.216357177734375,1.011736512184143,0.5281599760055542,-0.7325392961502075
1724854965319409200,12.2264091796875,0.9862571954727173,0.6284184455871582,-0.7784071564674377
1724854965329461200,12.236461181640625,1.0407555103302002,0.6818260550498962,-0.777031660079956
1724854965339513300,12.246513427734374,1.1260684728622437,0.724644124507904,-0.7884552478790283
1724854965349564400,12.256564453125,1.1901363134384155,0.8635548949241638,-0.8675985336303711
1724854965359616300,12.2666162109375,1.0997059345245361,0.8506271243095398,-0.9324978590011597
1724854965369668400,12.27666845703125,1.1201062202453613,0.7651697397232056,-0.9184427261352539
1724854965379720200,12.28672021484375,1.1353102922439575,0.6702669262886047,-0.8960152268409729
1724854965389771300,12.296771240234374,1.1819337606430054,0.8552730679512024,-0.9454375505447388
1724854965399823000,12.306822998046876,1.049279808998108,0.7429558634757996,-1.0238889455795288
1724854965409875200,12.316875244140626,1.0431674718856812,0.7805438041687012,-1.0246301889419556
1724854965419927300,12.32692724609375,0.993746280670166,0.8124945163726807,-1.0267173051834106
1724854965429979400,12.3369794921875,1.0452159643173218,0.805654764175415,-1.0707190036773682
1724854965440030500,12.347030517578125,0.892101526260376,0.6387054920196533,-1.1247849464416504
1724854965450082300,12.357082275390624,0.8179952502250671,0.7116714119911194,-1.1257565021514893
1724854965460134100,12.367134033203126,0.9161401987075806,0.7035221457481384,-1.0346885919570923
1724854965470186200,12.377186279296875,0.8413648009300232,0.9154003858566284,-1.0488871335983276
1724854965480238000,12.387238037109375,0.7281557321548462,1.233585238456726,-1.11349356174469
1724854965490289200,12.3972890625,0.674907922744751,0.9552994966506958,-1.0460814237594604
1724854965500341200,12.40734130859375,0.631112813949585,0.7674713134765625,-0.9628311991691589
1724854965510393000,12.41739306640625,0.5135008096694946,0.8492481708526611,-0.8938319683074951
1724854965520445400,12.427445556640626,0.37685883045196533,0.6069942116737366,-0.8980898261070251
1724854965530496300,12.437496337890625,0.3997843265533447,0.608721911907196,-0.8214629888534546
1724854965540548400,12.44754833984375,0.3990657925605774,0.11627917736768723,-0.7304356098175049
1724854965550600200,12.45760009765625,0.31240150332450867,0.11822903156280518,-0.7819942235946655
1724854965560652300,12.46765234375,0.25935184955596924,-0.33266329765319824,-0.7375002503395081
1724854965570704100,12.4777041015625,0.13623283803462982,0.052989523857831955,-0.6818358302116394
1724854965580755200,12.487755126953125,0.1463877409696579,-0.20003527402877808,-0.6404780149459839
