time,seconds_elapsed,z,y,x
1724854953136544000,0.0435439453125,-1.7247611284255981,1.1847354173660278,0.2832394242286682
1724854953146595800,0.053595947265625,-1.7160052061080933,1.3242568969726562,0.29288485646247864
1724854953156648000,0.06364794921875,-1.7011468410491943,1.5211079120635986,0.23242951929569244
1724854953166699800,0.07369970703125,-1.5971672534942627,1.5940371751785278,0.17964273691177368
1724854953176751900,0.083751953125,-1.4608831405639648,1.5385349988937378,0.14884141087532043
1724854953186803700,0.0938037109375,-1.3052443265914917,1.5203653573989868,0.10766228288412094
1724854953196854800,0.103854736328125,-1.143092155456543,1.4809130430221558,0.04228780046105385
1724854953206907000,0.113906982421875,-0.9744865894317627,1.3356096744537354,-0.00872345082461834
1724854953216958700,0.123958740234375,-0.7680508494377136,1.068970799446106,0.03472602367401123
1724854953227011000,0.134010986328125,-0.7205544710159302,0.9515352249145508,0.29970309138298035
1724854953237063000,0.14406298828125,-0.7259745001792908,0.8873271942138672,0.7450238466262817
1724854953247115000,0.154114990234375,-0.4968273341655731,0.68038409948349,1.1299973726272583
1724854953257166800,0.164166748046875,-0.04705352708697319,0.4673522710800171,1.4874372482299805
1724854953267219000,0.174218994140625,0.4895358681678772,0.3362666964530945,1.861491322517395
1724854953277270800,0.184270751953125,0.9325319528579712,0.5282784700393677,2.223611831665039
1724854953287321900,0.19432177734375,1.2469053268432617,0.8729506134986877,2.6017513275146484
1724854953297373700,0.204373779296875,1.4215271472930908,1.0574562549591064,2.9222846031188965
1724854953307426000,0.214426025390625,1.3873002529144287,0.474759578704834,2.710519313812256
1724854953317478000,0.224477783203125,1.2757289409637451,0.2348141074180603,2.3176069259643555
1724854953327530000,0.234530029296875,1.1729527711868286,0.1916266828775406,1.9274543523788452
1724854953337581800,0.244581787109375,1.1354789733886719,0.03509300574660301,1.5707619190216064
1724854953347634000,0.254634033203125,1.1616226434707642,-0.23946771025657654,1.2392066717147827
1724854953357685800,0.264685791015625,1.2483665943145752,-0.4760802686214447,0.9250189065933228
1724854953367737900,0.27473779296875,1.3507521152496338,-0.360996276140213,0.5718784332275391
1724854953377790000,0.2847900390625,1.4696861505508423,-0.0036107138730585575,0.2653469741344452
1724854953387841000,0.294841064453125,1.6072254180908203,0.3853181302547455,0.11039281636476517
1724854953397892900,0.304892822265625,1.77676522731781,0.7180633544921875,0.12175226956605911
1724854953407945000,0.314945068359375,1.951842188835144,0.9629495143890381,0.2202460765838623
1724854953417996800,0.324996826171875,2.0637595653533936,1.329089641571045,0.274138867855072
1724854953428049000,0.335048828125,2.0419270992279053,1.9502991437911987,0.16069860756397247
1724854953438100700,0.345100830078125,1.925406575202942,2.098177194595337,-0.06922195106744766
1724854953448152800,0.35515283203125,1.66449773311615,1.4284168481826782,-0.4333961606025696
1724854953458205000,0.365204833984375,1.1262308359146118,0.5176708698272705,-0.9186209440231323
1724854953468257000,0.375257080078125,0.4970555901527405,0.1547163426876068,-1.339152455329895
1724854953478308900,0.385308837890625,-0.16446298360824585,0.14466769993305206,-1.600459098815918
1724854953488360000,0.39535986328125,-0.7045240998268127,0.44612130522727966,-1.7646722793579102
1724854953498411800,0.405411865234375,-0.911172091960907,0.6163420081138611,-1.8397252559661865
1724854953508463900,0.4154638671875,-0.7345067262649536,0.39058372378349304,-1.7741590738296509
1724854953518515700,0.425515625,-0.45222845673561096,0.14836443960666656,-1.587073802947998
1724854953528567800,0.43556787109375,-0.186530202627182,-0.13548512756824493,-1.3541300296783447
1724854953538619600,0.44561962890625,-0.05258677899837494,-0.5102217197418213,-1.1263983249664307
1724854953548672000,0.455672119140625,-0.08354975283145905,-0.7557835578918457,-0.9387661218643188
1724854953558723800,0.465723876953125,-0.1440783441066742,-0.6910277009010315,-0.7947671413421631
1724854953568776000,0.47577587890625,-0.1439792811870575,-0.4432557225227356,-0.66804039478302
1724854953578827000,0.485826904296875,-0.07310936599969864,-0.11029881238937378,-0.5291607975959778
1724854953588878800,0.49587890625,-0.015899604186415672,0.0969206839799881,-0.4155527353286743
1724854953598931000,0.505930908203125,0.043050531297922134,0.14540433883666992,-0.4140573740005493
1724854953608982800,0.515982666015625,0.07973957061767578,0.19805583357810974,-0.5210695862770081
1724854953619035000,0.526034912109375,0.1756138950586319,0.3816956877708435,-0.6515167951583862
1724854953629087000,0.5360869140625,0.3303430378437042,0.576295018196106,-0.7183240652084351
1724854953639138800,0.546138916015625,0.45822110772132874,0.6138269305229187,-0.6946607828140259
1724854953649191000,0.55619091796875,0.5063108801841736,0.6194227933883667,-0.6695602536201477
1724854953659242800,0.56624267578125,0.41326719522476196,0.5967432856559753,-0.7615799307823181
1724854953669294800,0.576294921875,0.34996625781059265,0.5698786377906799,-0.9903324246406555
1724854953679346000,0.586345947265625,0.3083421289920807,0.5943560600280762,-1.2160435914993286
1724854953689397800,0.596397705078125,0.27294471859931946,0.6741675138473511,-1.3334239721298218
1724854953699449900,0.606449951171875,0.2727886438369751,0.8544925451278687,-1.308066725730896
1724854953709502000,0.616501953125,0.29088670015335083,1.0145597457885742,-1.2033389806747437
1724854953719554000,0.626553955078125,0.30231085419654846,1.0324194431304932,-1.060703992843628
1724854953729606000,0.63660595703125,0.2912033498287201,0.9954451322555542,-0.9593486189842224
1724854953739658000,0.646657958984375,0.2103247493505478,0.9172150492668152,-0.9029831290245056
1724854953749709800,0.656709716796875,0.09262953698635101,0.841472327709198,-0.8364648222923279
1724854953759762000,0.666761962890625,0.03355476260185242,0.7581177949905396,-0.799028754234314
1724854953769812700,0.676812744140625,0.04568732529878616,0.6561543941497803,-0.8613930344581604
1724854953779864800,0.68686474609375,0.017011741176247597,0.4676779806613922,-0.9423944354057312
1724854953789916700,0.696916748046875,-0.06876707822084427,0.27005091309547424,-1.0182361602783203
1724854953799969000,0.706968994140625,-0.179489865899086,0.21496637165546417,-1.0564261674880981
1724854953810020900,0.717020751953125,-0.2774744927883148,0.282016783952713,-1.0391420125961304
1724854953820073000,0.727072998046875,-0.3590574860572815,0.47740039229393005,-0.9683642387390137
1724854953830124800,0.737124755859375,-0.4397145211696625,0.720134973526001,-0.8701865673065186
1724854953840177000,0.747177001953125,-0.5534653067588806,0.9676843285560608,-0.752033531665802
1724854953850228700,0.757228759765625,-0.7067582011222839,1.1237822771072388,-0.6196701526641846
1724854953860280800,0.76728076171875,-0.8753067255020142,1.1338669061660767,-0.503372073173523
1724854953870331600,0.77733154296875,-1.0596296787261963,1.043115496635437,-0.43517518043518066
1724854953880384000,0.787384033203125,-1.2278413772583008,0.9657375812530518,-0.3776026964187622
1724854953890435800,0.797435791015625,-1.3223049640655518,0.9573163986206055,-0.30277106165885925
1724854953900488000,0.807488037109375,-1.3292292356491089,1.1643364429473877,-0.19451674818992615
1724854953910539800,0.817539794921875,-1.276997685432434,1.9216885566711426,-0.2664061188697815
1724854953920592000,0.827591796875,-1.1447222232818604,2.384167432785034,-0.20330572128295898
1724854953930643700,0.837643798828125,-1.0923725366592407,2.892216920852661,-0.06506981700658798
1724854953940695800,0.84769580078125,-1.2049006223678589,3.203077793121338,0.15327104926109314
1724854953950748000,0.857747802734375,-1.4521045684814453,3.2641665935516357,0.5016245245933533
1724854953960799000,0.867799072265625,-1.7509220838546753,3.0929079055786133,0.9124591946601868
1724854953970851000,0.87785107421875,-2.049135446548462,2.8792028427124023,1.231851577758789
1724854953980903000,0.88790283203125,-2.33886456489563,2.6338186264038086,1.2782135009765625
1724854953990954800,0.897954833984375,-2.578737497329712,2.4484682083129883,0.9774336218833923
1724854954001006800,0.9080068359375,-2.749169111251831,2.37093186378479,0.4500694274902344
1724854954011058700,0.91805859375,-2.8804914951324463,2.424426794052124,-0.07555680721998215
1724854954021110800,0.92811083984375,-3.011836290359497,2.6515305042266846,-0.4222031831741333
1724854954031163000,0.938162841796875,-3.1821975708007812,3.0125038623809814,-0.5223654508590698
1724854954041215000,0.948215087890625,-3.38413143157959,3.5065865516662598,-0.40144890546798706
1724854954051266800,0.958266845703125,-3.6400115489959717,4.144946575164795,-0.13438338041305542
1724854954061318000,0.96831787109375,-3.8217761516571045,4.578916072845459,0.19778205454349518
1724854954071370000,0.978369873046875,-3.956821918487549,4.648538589477539,0.5177081227302551
1724854954081421800,0.988421875,-4.105147361755371,4.29499626159668,0.7415468096733093
1724854954091477800,0.998477783203125,-4.403774261474609,4.001878261566162,0.705406904220581
1724854954101529600,1.008529541015625,-4.668868064880371,3.7900454998016357,0.5088797211647034
1724854954111581400,1.01858154296875,-4.738071441650391,3.566586971282959,0.3457382321357727
1724854954121633500,1.028633544921875,-4.684050559997559,3.342550754547119,0.37987834215164185
1724854954131685600,1.038685546875,-4.545256614685059,2.9703848361968994,0.4433785080909729
1724854954141737700,1.04873779296875,-4.338217258453369,2.9224491119384766,0.7121436595916748
1724854954151788800,1.058788818359375,-4.119962692260742,3.0196664333343506,1.1046369075775146
1724854954161840600,1.068840576171875,-3.8435630798339844,2.7127115726470947,1.4152657985687256
1724854954171892700,1.078892822265625,-3.5565664768218994,2.1577999591827393,1.4960943460464478
1724854954181944600,1.088944580078125,-3.315547227859497,1.554703950881958,1.3027856349945068
1724854954191996700,1.09899658203125,-3.1031229496002197,0.9466139674186707,0.9574468731880188
1724854954202048500,1.109048583984375,-2.946617364883423,0.466386616230011,0.6442700624465942
1724854954212100600,1.1191005859375,-2.892284870147705,0.11216701567173004,0.4965684711933136
1724854954222152700,1.129152587890625,-2.8716416358947754,-0.17797186970710754,0.5140281915664673
1724854954232204800,1.139204833984375,-2.7512214183807373,-0.5501310229301453,0.5212152600288391
1724854954242256600,1.149256591796875,-2.352698564529419,-0.835112452507019,0.5492825508117676
1724854954252307700,1.1593076171875,-1.6511108875274658,-0.832206130027771,0.7238724827766418
1724854954262359600,1.169359619140625,-0.5521928668022156,-0.34258371591567993,0.8489662408828735
1724854954272411600,1.17941162109375,0.5077404379844666,-0.14737747609615326,0.7376567125320435
1724854954282463500,1.18946337890625,1.0225406885147095,0.27169302105903625,0.28418806195259094
1724854954292515600,1.199515625,0.9011804461479187,0.4899585247039795,-0.36879080533981323
1724854954302567700,1.209567626953125,0.46823084354400635,0.08099018782377243,-0.9774589538574219
1724854954312619800,1.219619873046875,0.24747024476528168,-0.5398983955383301,-1.4111329317092896
1724854954322671600,1.229671630859375,0.23959660530090332,-1.0139676332473755,-1.4439454078674316
1724854954332723700,1.2397236328125,0.3358360528945923,-1.2354403734207153,-1.0721710920333862
1724854954342774500,1.2497744140625,0.25802090764045715,-1.3235723972320557,-0.20813855528831482
1724854954352826600,1.25982666015625,-0.11053796112537384,-1.5983786582946777,0.8462157249450684
1724854954362878500,1.26987841796875,-0.5791022181510925,-2.251415252685547,1.521245002746582
1724854954372930600,1.2799306640625,-1.0323586463928223,-3.4241318702697754,1.7795833349227905
1724854954382982700,1.289982666015625,-0.9417776465415955,-3.5522854328155518,1.7800259590148926
1724854954393034800,1.30003466796875,-0.7353267073631287,-3.3316688537597656,1.797932505607605
1724854954403086600,1.310086669921875,-0.49084773659706116,-2.9541001319885254,1.622106671333313
1724854954413138700,1.320138671875,-0.38323473930358887,-2.2809455394744873,1.2325628995895386
1724854954423190500,1.3301904296875,-0.2508852183818817,-1.8444278240203857,0.8868680596351624
1724854954433242600,1.34024267578125,0.13972914218902588,-1.0357203483581543,0.5471600294113159
1724854954443293700,1.350293701171875,0.7319096326828003,0.6811609864234924,0.418979674577713
1724854954453345500,1.360345458984375,0.7633482217788696,2.1208243370056152,0.4336835443973541
1724854954463397400,1.3703974609375,0.15870070457458496,2.557232618331909,0.2334500402212143
1724854954473449700,1.38044970703125,-0.8889221549034119,1.3591817617416382,0.13573120534420013
1724854954483501600,1.39050146484375,-1.3283495903015137,0.0804133489727974,0.23969115316867828
1724854954493553700,1.4005537109375,-1.2433944940567017,-0.8242944478988647,0.520857572555542
1724854954503605500,1.41060546875,-0.9249927997589111,-1.262341856956482,0.6007137894630432
1724854954513657600,1.42065771484375,-0.6522068381309509,-0.9951425790786743,0.740749180316925
1724854954523709400,1.43070947265625,-0.3569887578487396,-0.22425520420074463,0.7993259429931641
1724854954533760500,1.440760498046875,-0.22649438679218292,0.2290707379579544,0.5865231156349182
1724854954543812600,1.4508125,-0.012024970725178719,1.5599327087402344,-0.00025273399660363793
1724854954553864700,1.46086474609375,0.39941132068634033,2.094738006591797,-0.4454672038555145
1724854954563916800,1.470916748046875,0.5669731497764587,2.0909173488616943,-0.4583473205566406
1724854954573968600,1.48096875,0.43391281366348267,2.249682664871216,-0.350277841091156
1724854954584020700,1.491020751953125,0.25588637590408325,2.4071671962738037,-0.2436659187078476
1724854954594072600,1.501072509765625,-0.2041986733675003,2.0625593662261963,0.3042624294757843
1724854954604124700,1.511124755859375,-0.5766414999961853,1.6396433115005493,1.0936737060546875
1724854954614176500,1.521176513671875,-0.5500522255897522,1.4983197450637817,1.561227798461914
1724854954624228600,1.531228515625,-0.3514285981655121,1.6209641695022583,1.398802399635315
1724854954634279700,1.54127978515625,-0.02256336621940136,1.7611899375915527,0.7479764819145203
1724854954644331800,1.551331787109375,0.38803935050964355,2.250818967819214,-0.3258358836174011
1724854954654383600,1.561383544921875,0.5408022403717041,1.9680845737457275,-0.7643634676933289
1724854954664435700,1.571435791015625,0.44408130645751953,1.8286116123199463,-0.7098807692527771
1724854954674487600,1.581487548828125,0.45243990421295166,1.8316692113876343,-0.45187532901763916
1724854954684539600,1.59153955078125,0.6547344326972961,1.6786303520202637,-0.09113416820764542
1724854954694591500,1.601591552734375,0.9497439861297607,1.3919306993484497,0.2881889045238495
1724854954704643800,1.611643798828125,1.1328551769256592,1.564721941947937,0.2759934961795807
1724854954714695700,1.62169580078125,1.162526249885559,1.7232495546340942,-0.12280581146478653
1724854954724746800,1.631746826171875,0.8345675468444824,1.7527482509613037,-0.14231453835964203
1724854954734798600,1.641798583984375,0.6433677673339844,1.7970941066741943,0.05661188066005707
1724854954744850700,1.6518505859375,0.5536514520645142,2.1325228214263916,0.2143019139766693
1724854954754902500,1.661902587890625,0.4274378716945648,2.273343563079834,0.24112020432949066
1724854954764954600,1.67195458984375,0.21937549114227295,2.3885700702667236,0.1414753645658493
1724854954775006500,1.68200634765625,0.008313057012856007,2.3428938388824463,0.0503007210791111
1724854954785058800,1.692058837890625,-0.15208540856838226,2.227506160736084,-0.06004336476325989
1724854954795110700,1.702110595703125,-0.2885039746761322,2.003052234649658,-0.1605534553527832
1724854954805162800,1.712162841796875,-0.30792614817619324,1.7223013639450073,-0.28651776909828186
1724854954815214600,1.722214599609375,-0.19224481284618378,1.629564881324768,-0.46276816725730896
1724854954825265700,1.732265625,-0.13659672439098358,1.6634894609451294,-0.5894222855567932
1724854954835317500,1.7423173828125,0.07594615966081619,0.433245450258255,-1.4887661933898926
1724854954845369600,1.75236962890625,-0.11067911237478256,0.1560247540473938,-1.8374810218811035
1724854954855421400,1.76242138671875,-0.02291916497051716,0.20703333616256714,-1.5885993242263794
1724854954865473500,1.7724736328125,0.1497141271829605,0.590705931186676,-0.7737920880317688
1724854954875525600,1.782525634765625,-0.062367502599954605,1.3197318315505981,0.07264357805252075
1724854954885577700,1.79257763671875,-0.253071129322052,1.4202654361724854,0.1980222761631012
1724854954895629600,1.802629638671875,-0.40311044454574585,0.5570400953292847,-0.47138455510139465
1724854954905681700,1.812681640625,-0.7039248943328857,0.5242299437522888,-0.8470050692558289
1724854954915732700,1.822732666015625,-0.9028672575950623,0.4171495735645294,-0.6675679087638855
1724854954925784600,1.83278466796875,-1.237533688545227,0.16910859942436218,-0.2885788083076477
1724854954935836700,1.842836669921875,-1.9691945314407349,-0.1672273427248001,-0.11903637647628784
1724854954945888500,1.852888427734375,-3.028012990951538,-0.5542618632316589,-0.33687523007392883
1724854954955940600,1.862940673828125,-3.5772719383239746,-0.2685030996799469,-0.3281935751438141
1724854954965992700,1.87299267578125,-3.879412889480591,0.193630188703537,-0.14883795380592346
1724854954976044500,1.88304443359375,-4.041551113128662,0.4371078312397003,-0.086710125207901
1724854954986096600,1.8930966796875,-4.130558490753174,0.457388311624527,-0.14493562281131744
1724854954996148500,1.9031484375,-4.048318386077881,0.20945627987384796,-0.22367995977401733
1724854955006200600,1.91320068359375,-4.179462909698486,-0.17807146906852722,-0.08690107613801956
1724854955016251600,1.923251708984375,-4.355215549468994,-0.5113455653190613,0.3293009400367737
1724854955026303500,1.933303466796875,-4.4353556632995605,-1.360611081123352,0.7988393902778625
1724854955036355800,1.94335595703125,-4.26749849319458,-2.2874274253845215,1.0532125234603882
1724854955046407700,1.95340771484375,-4.143966197967529,-2.5747463703155518,1.1417901515960693
1724854955056459800,1.963459716796875,-4.145936965942383,-2.3783915042877197,1.0298928022384644
1724854955066511600,1.97351171875,-4.200109481811523,-1.918302297592163,0.6703895330429077
1724854955076563700,1.983563720703125,-4.249557018280029,-1.0811896324157715,0.26893240213394165
1724854955086615800,1.99361572265625,-4.252591133117676,-0.2806444466114044,-0.04782770946621895
1724854955096668000,2.00366796875,-4.133763790130615,0.1735435575246811,-0.2551816999912262
1724854955106719000,2.013718994140625,-3.614952564239502,0.46268269419670105,-0.3372616469860077
1724854955116771000,2.02377099609375,-2.6027936935424805,0.8701758980751038,-0.23911111056804657
1724854955126823000,2.033822998046875,-1.5679744482040405,1.0941171646118164,0.04735206812620163
1724854955136875000,2.043875,-0.8542563319206238,1.2381707429885864,0.4235976040363312
1724854955146926800,2.0539267578125,-0.6004871726036072,1.7985026836395264,0.8198632001876831
1724854955156979000,2.06397900390625,-0.5529921054840088,2.650062084197998,1.1273877620697021
1724854955167030800,2.07403076171875,-0.5310460329055786,3.2391908168792725,1.2726881504058838
1724854955177083100,2.084083251953125,-0.5653390288352966,3.5054445266723633,0.8370330929756165
1724854955187135000,2.094135009765625,-0.6646163463592529,3.0521786212921143,-0.43624043464660645
1724854955197187000,2.10418701171875,-0.8644250631332397,1.605162501335144,-1.9879733324050903
1724854955207238000,2.11423779296875,-1.1482958793640137,0.2921258807182312,-2.4497909545898438
1724854955217290000,2.1242900390625,-1.3694703578948975,-0.10854139178991318,-1.4962760210037231
1724854955227341800,2.134341796875,-1.3894076347351074,-0.012599947862327099,-0.30548614263534546
1724854955237394000,2.144393798828125,-1.252027153968811,0.03485971316695213,0.1968771070241928
1724854955247445800,2.15444580078125,-1.1206259727478027,-0.31096693873405457,0.3037247359752655
1724854955257498000,2.164498046875,-1.0645877122879028,-0.6741864085197449,0.07968764007091522
1724854955267550000,2.174550048828125,-1.074940800666809,-0.6535977721214294,-0.007386277429759502
1724854955277602000,2.18460205078125,-0.9946743845939636,-0.22091080248355865,-0.10909559577703476
1724854955287654000,2.19465380859375,-0.8873023986816406,-0.08096089214086533,-0.21500791609287262
1724854955297706000,2.2047060546875,-0.7259343266487122,-0.24784788489341736,-0.274879515171051
1724854955307756800,2.2147568359375,-0.5229795575141907,-0.5209097862243652,-0.303946316242218
1724854955317809000,2.224808837890625,-0.2674913704395294,-0.6514803171157837,-0.2575303316116333
1724854955327860700,2.23486083984375,0.08238275349140167,-0.47252893447875977,-0.21752433478832245
1724854955337912800,2.244912841796875,0.0451379157602787,-0.3079011142253876,-0.20842458307743073
1724854955347965000,2.25496484375,0.01432221382856369,-0.13960929214954376,-0.23054692149162292
1724854955358017000,2.26501708984375,0.029142439365386963,-0.043766122311353683,-0.15331950783729553
1724854955368068900,2.27506884765625,0.03136191889643669,0.04543459415435791,-0.05180593952536583
1724854955378121000,2.285120849609375,0.01563861407339573,0.041598841547966,-0.0015603461069986224
1724854955388172800,2.2951728515625,-0.005530053749680519,0.10001634806394577,0.00042504051816649735
1724854955398224000,2.305223876953125,0.006162022240459919,0.002112419344484806,-0.11828403174877167
1724854955408276000,2.31527587890625,-0.02202061377465725,0.14903156459331512,-0.1944616287946701
1724854955418327800,2.325327880859375,-0.01534699834883213,0.12274403125047684,-0.20588046312332153
1724854955428380000,2.3353798828125,-0.0051811798475682735,0.060500629246234894,-0.15143559873104095
1724854955438432000,2.345431884765625,0.017488446086645126,0.07434161007404327,-0.09022922813892365
1724854955448483800,2.35548388671875,0.06394729018211365,0.07986766844987869,-0.10144779831171036
1724854955458536000,2.365535888671875,0.053349241614341736,0.07171972841024399,-0.19728271663188934
1724854955468587800,2.375587890625,0.02859196439385414,0.0005813680472783744,-0.3019998073577881
1724854955478639900,2.385639892578125,0.002686863299459219,-0.11275611072778702,-0.3014967441558838
1724854955488691000,2.39569091796875,0.004162786994129419,-0.21131624281406403,-0.2656620442867279
1724854955498742800,2.40574267578125,0.019939620047807693,-0.27888089418411255,-0.7451841831207275
1724854955508795100,2.415795166015625,-0.1862068921327591,-0.018340924754738808,-1.3473988771438599
1724854955518847000,2.425846923828125,-0.32461482286453247,0.46898773312568665,-0.951745867729187
1724854955528899000,2.435899169921875,-0.3914380669593811,0.1500805765390396,-0.377437561750412
1724854955538951000,2.445950927734375,-0.5119085311889648,-0.0960727334022522,0.08996903896331787
1724854955549003000,2.4560029296875,-0.6604517102241516,0.27376070618629456,0.2953954339027405
1724854955559054800,2.466054931640625,-0.6704225540161133,0.10158334672451019,0.5500003099441528
1724854955569107000,2.47610693359375,-0.34101325273513794,-0.6815215349197388,0.7457306385040283
1724854955579157800,2.48615771484375,0.20563997328281403,-1.0513304471969604,0.7301951050758362
1724854955589209900,2.4962099609375,0.8121216297149658,-0.9661352038383484,0.5421404838562012
1724854955599262000,2.506261962890625,1.4579187631607056,-0.22383442521095276,0.5654774904251099
1724854955609314000,2.51631396484375,2.3164238929748535,0.22343654930591583,0.4269942045211792
1724854955619366000,2.526365966796875,2.7851269245147705,0.2620460093021393,0.3463691174983978
1724854955629418000,2.53641796875,2.417192220687866,-0.4262658357620239,0.04213813319802284
1724854955639469800,2.5464697265625,1.4751321077346802,-0.671337902545929,-0.29377037286758423
1724854955649522000,2.55652197265625,0.283665269613266,-0.23902855813503265,-0.5032618045806885
1724854955659574000,2.566573974609375,-0.17693722248077393,0.09053841978311539,-0.8769967555999756
1724854955669624800,2.576624755859375,0.1683565229177475,0.1905936449766159,-0.8401631116867065
1724854955679677000,2.586677001953125,0.6956323385238647,0.21430377662181854,-0.6008080840110779
1724854955689729000,2.59672900390625,0.9336206316947937,0.2917623519897461,-0.5423871278762817
1724854955699780900,2.60678076171875,0.9373461604118347,0.4831365644931793,-0.6219444870948792
1724854955709833000,2.6168330078125,1.1597440242767334,0.218959778547287,-0.7446480393409729
1724854955719884800,2.626884765625,1.55224609375,-0.20607806742191315,-0.7474270462989807
1724854955729937000,2.63693701171875,1.4161961078643799,-0.5267325043678284,-0.35928067564964294
1724854955739988700,2.64698876953125,1.000693917274475,-0.16874374449253082,-0.2316119223833084
1724854955750041000,2.657041015625,0.5150074362754822,-0.074268639087677,-0.17237922549247742
1724854955760093000,2.667093017578125,0.12128674983978271,-0.1264234483242035,-0.11716630309820175
1724854955770144000,2.67714404296875,-0.09122765064239502,-0.09153258055448532,-0.027479294687509537
1724854955780195800,2.68719580078125,-0.25447994470596313,-0.0009723200928419828,0.12530678510665894
1724854955790248000,2.697248046875,-0.46508166193962097,0.07984209805727005,0.2871324419975281
1724854955800299800,2.7072998046875,-0.7274672389030457,0.18483829498291016,0.40917205810546875
1724854955810351900,2.717351806640625,-0.9277126789093018,0.17812979221343994,0.35833072662353516
1724854955820403700,2.72740380859375,-0.9029015898704529,-0.01768605224788189,-0.03924886882305145
1724854955830456000,2.7374560546875,-0.23617471754550934,-0.40782663226127625,-0.4504225552082062
1724854955840508000,2.7475078125,0.1382414996623993,-0.5369784832000732,-0.5337134599685669
1724854955850560000,2.75756005859375,0.2992977499961853,-0.24797704815864563,-0.5721178650856018
1724854955860611000,2.767611083984375,0.04451846703886986,0.20665410161018372,-0.5201923251152039
1724854955870663000,2.777662841796875,-0.1667594164609909,-0.1893017441034317,-0.2825360894203186
1724854955880715000,2.787715087890625,-0.147997185587883,-0.5172567367553711,-0.2777138948440552
1724854955890766800,2.797766845703125,-0.10869931429624557,-0.39202529191970825,-0.30931738018989563
1724854955900819000,2.80781884765625,-0.09297627955675125,-0.2724091410636902,-0.28959959745407104
1724854955910871000,2.81787109375,-0.0735703557729721,-0.21301773190498352,-0.22637908160686493
1724854955920923000,2.8279228515625,-0.0641680657863617,-0.1613209843635559,-0.15050669014453888
1724854955930975000,2.83797509765625,-0.06168786436319351,-0.09608551859855652,-0.08382619172334671
1724854955941026800,2.84802685546875,-0.062190935015678406,-0.004555869847536087,-0.047078829258680344
1724854955951078000,2.858077880859375,-0.05847076699137688,0.07619277387857437,-0.025411084294319153
1724854955961130000,2.8681298828125,-0.05000457912683487,0.10761141777038574,-0.028013791888952255
1724854955971181800,2.878181884765625,-0.04053623974323273,0.08751440048217773,-0.02823003940284252
1724854955981234000,2.88823388671875,-0.027455326169729233,0.0538075715303421,-0.03576252609491348
1724854955991285800,2.89828564453125,-0.032229043543338776,0.01347452960908413,-0.052325788885354996
1724854956001338000,2.908338134765625,-0.038120485842227936,-0.013365340419113636,-0.08463392406702042
1724854956011390000,2.918389892578125,-0.05481930822134018,-0.03169774264097214,-0.11508771032094955
1724854956021442000,2.928442138671875,-0.06733083724975586,-0.05517936497926712,-0.14114753901958466
1724854956031494000,2.938493896484375,-0.06067613139748573,-0.0782705694437027,-0.1410553902387619
1724854956041546000,2.9485458984375,-0.021190771833062172,-0.06407112628221512,-0.11069775372743607
1724854956051596800,2.9585966796875,0.003052515210583806,-0.025374598801136017,-0.06390068680047989
1724854956061649000,2.96864892578125,0.046070557087659836,0.035048265010118484,0.0023518374655395746
1724854956071700700,2.97870068359375,0.07021743804216385,0.10332053154706955,0.05089380592107773
1724854956081753000,2.988753173828125,0.07421990483999252,0.1542777270078659,0.08418704569339752
1724854956091801600,2.998801513671875,0.06160850450396538,0.1788448542356491,0.0996168702840805
1724854956101853700,3.008853759765625,0.05524647608399391,0.1950128972530365,0.0926540344953537
1724854956111905500,3.018905517578125,0.034017886966466904,0.20138104259967804,0.07577306032180786
1724854956121957600,3.02895751953125,0.021770009770989418,0.1895185261964798,0.07028748095035553
1724854956132008400,3.039008544921875,-0.015851134434342384,0.17174485325813293,0.07936539500951767
1724854956142060500,3.049060546875,-0.03892716020345688,0.16240009665489197,0.06150171160697937
1724854956152112400,3.0591123046875,-0.047211188822984695,0.1344616711139679,0.044742438942193985
1724854956162164500,3.06916455078125,-0.0696488544344902,0.1180049329996109,0.024593759328126907
1724854956172216600,3.079216552734375,-0.06079703941941261,0.08161097019910812,-0.001589108258485794
1724854956182268700,3.0892685546875,-0.031137146055698395,0.06560457497835159,0.004041346721351147
1724854956192320500,3.099320556640625,-0.04063264653086662,0.06627915799617767,-0.0008426241693086922
1724854956202372600,3.10937255859375,-0.02431625872850418,0.049558497965335846,-0.008843558840453625
1724854956212424400,3.119424560546875,-0.015723569318652153,0.0403658002614975,-0.00854448601603508
1724854956222476500,3.1294765625,-0.005508748814463615,0.02978000044822693,-0.0054339137859642506
1724854956232527600,3.139527587890625,-0.0797630026936531,0.07470433413982391,-0.008229966275393963
1724854956242579500,3.149579345703125,-0.09333660453557968,0.0477033406496048,-0.040831584483385086
1724854956252631600,3.159631591796875,-0.09075626730918884,0.01770070008933544,-0.06258402019739151
1724854956262683600,3.16968359375,-0.07880719751119614,0.014740063808858395,-0.06503971666097641
1724854956272735500,3.179735595703125,-0.06490762531757355,0.0030178942251950502,-0.06914497911930084
1724854956282787600,3.18978759765625,-0.05922017991542816,-0.03352547064423561,-0.07611420750617981
1724854956292839400,3.19983935546875,-0.05167943984270096,-0.09568072110414505,-0.08350981026887894
1724854956302891500,3.2098916015625,-0.10426542162895203,-0.11520302295684814,-0.09957532584667206
1724854956312943400,3.219943359375,-0.132380411028862,-0.1475875973701477,-0.1241949200630188
1724854956322994400,3.229994384765625,-0.1829698234796524,-0.14136698842048645,-0.11004847288131714
1724854956333046500,3.240046630859375,-0.15978486835956573,-0.17256031930446625,-0.11205143481492996
1724854956343098600,3.2500986328125,-0.15386173129081726,-0.1588466316461563,-0.09277387708425522
1724854956353150700,3.260150634765625,-0.15601064264774323,-0.14402082562446594,-0.07115966081619263
1724854956363202600,3.27020263671875,-0.13408163189888,-0.16609203815460205,-0.044618599116802216
1724854956373254700,3.280254638671875,-0.12382394075393677,-0.1631298065185547,-0.011505388654768467
1724854956383306500,3.290306396484375,-0.10948601365089417,-0.14410445094108582,0.0018391790799796581
1724854956393358600,3.300358642578125,-0.09535527974367142,-0.11053343862295151,-0.00504003232344985
1724854956403410400,3.310410400390625,-0.09139888733625412,-0.07954090088605881,-0.01793905347585678
1724854956413461500,3.32046142578125,-0.07539781928062439,-0.08018671721220016,-0.03406156226992607
1724854956423513600,3.330513671875,-0.08487866818904877,-0.08917248994112015,-0.057579405605793
1724854956433565700,3.340565673828125,-0.12384604662656784,-0.09805972129106522,-0.08946064114570618
1724854956443617500,3.350617431640625,-0.1304594725370407,-0.09666422754526138,-0.10018012672662735
1724854956453669600,3.360669677734375,-0.11800280213356018,-0.10286646336317062,-0.08733410388231277
1724854956463721500,3.370721435546875,-0.10643589496612549,-0.12293551117181778,-0.08321765810251236
1724854956473773600,3.380773681640625,-0.08938127756118774,-0.11609198153018951,-0.07155514508485794
1724854956483825400,3.390825439453125,-0.0692182183265686,-0.10056974738836288,-0.07288113236427307
1724854956493877800,3.400877685546875,-0.05273591727018356,-0.10698796808719635,-0.07734192907810211
1724854956503928300,3.41092822265625,-0.0477568693459034,-0.07619969546794891,-0.0922500342130661
1724854956513980700,3.420980712890625,-0.06335926800966263,-0.05414419621229172,-0.11423309892416
1724854956524032500,3.431032470703125,-0.08426348119974136,-0.04591768980026245,-0.14992345869541168
1724854956534084600,3.441084716796875,-0.05945054441690445,-0.0545138418674469,-0.1581622064113617
1724854956544136400,3.451136474609375,-0.12325562536716461,-0.05350929871201515,-0.17871861159801483
1724854956554188500,3.4611884765625,-0.17815987765789032,-0.025194834917783737,-0.21176524460315704
1724854956564240400,3.471240478515625,-0.24682416021823883,0.010669688694179058,-0.21741461753845215
1724854956574292500,3.48129248046875,-0.13826680183410645,0.017667144536972046,-0.15541861951351166
1724854956584344600,3.491344482421875,-0.097169429063797,-0.04060734808444977,-0.042326685041189194
1724854956594396700,3.501396728515625,-0.19043998420238495,-0.14092808961868286,0.04403110593557358
1724854956604447500,3.511447509765625,-0.28142261505126953,-0.09941686689853668,0.16666780412197113
1724854956614499600,3.52149951171875,-0.3292234241962433,0.07003448158502579,0.3163640797138214
1724854956624551400,3.531551513671875,-0.360584557056427,0.24872486293315887,0.5600966215133667
1724854956634603500,3.541603515625,-0.37541064620018005,0.4185016453266144,0.7662550806999207
1724854956644655400,3.5516552734375,-0.3653806447982788,0.49086320400238037,0.8610971570014954
1724854956654707500,3.56170751953125,-0.36582431197166443,0.5131456255912781,0.9116487503051758
1724854956664759600,3.571759521484375,-0.32734429836273193,0.27384886145591736,0.7864591479301453
1724854956674811600,3.581811767578125,-0.30865344405174255,-0.03708691522479057,0.6191460490226746
1724854956684863500,3.591863525390625,-0.27375298738479614,-0.2791818380355835,0.4300919771194458
1724854956694914600,3.60191455078125,-0.2404557466506958,-0.39040395617485046,0.2928957939147949
1724854956704966700,3.611966552734375,-0.2101210057735443,-0.4372420310974121,0.1823762059211731
1724854956715018500,3.6220185546875,-0.1965271681547165,-0.42040660977363586,0.08880683779716492
1724854956725070600,3.632070556640625,-0.15170696377754211,-0.3521828055381775,0.01727352850139141
1724854956735122400,3.642122314453125,-0.12511344254016876,-0.19685953855514526,-0.01727725751698017
1724854956745174500,3.652174560546875,-0.15556801855564117,0.0688946470618248,0.058390337973833084
1724854956755226600,3.6622265625,-0.1753217577934265,0.42842110991477966,0.14916205406188965
1724854956765278500,3.672278564453125,-0.22937166690826416,0.6253536343574524,0.06198986619710922
1724854956775330600,3.68233056640625,-0.30823665857315063,0.7271543145179749,-0.13281317055225372
1724854956785382400,3.69238232421875,-0.3602045178413391,0.618878960609436,-0.3990054428577423
1724854956795433500,3.70243359375,-0.29342949390411377,0.7439976930618286,-0.5644902586936951
1724854956805485600,3.712485595703125,-0.1495029330253601,0.5322652459144592,-0.6750918626785278
1724854956815537400,3.722537353515625,-0.046903859823942184,0.46802738308906555,-0.5907783508300781
1724854956825589800,3.73258984375,-0.012054000049829483,0.43527209758758545,-0.40562713146209717
1724854956835641600,3.7426416015625,-0.05967424809932709,0.4740743637084961,-0.2680650055408478
1724854956845693700,3.752693603515625,-0.13636663556098938,0.5518596768379211,-0.1612059324979782
1724854956855745500,3.76274560546875,-0.26659733057022095,0.5661163926124573,-0.14210174977779388
1724854956865797600,3.772797607421875,-0.43657439947128296,0.512937068939209,-0.09561999887228012
1724854956875849500,3.782849365234375,-0.33022770285606384,0.2310987263917923,-0.07479647547006607
1724854956885901600,3.792901611328125,-0.2639709413051605,0.09349346160888672,-0.039386820048093796
1724854956895952400,3.802952392578125,-0.2141442447900772,0.04374508187174797,-0.0002892192860599607
1724854956906004500,3.81300439453125,-0.21047894656658173,0.024759940803050995,0.010461429134011269
1724854956916056600,3.823056640625,-0.19763104617595673,-0.019303124397993088,-0.003019758267328143
1724854956926108700,3.833108642578125,-0.19403019547462463,-0.0806138888001442,-0.005676794331520796
1724854956936160500,3.843160400390625,-0.17896442115306854,-0.13089357316493988,0.013761085458099842
1724854956946212600,3.853212646484375,-0.1773228496313095,-0.16937997937202454,-0.01613476127386093
1724854956956264400,3.863264404296875,-0.14080612361431122,-0.19113746285438538,-0.02323288470506668
1724854956966316500,3.873316650390625,-0.11723261326551437,-0.1638302057981491,0.00926353968679905
1724854956976368400,3.883368408203125,-0.11960629373788834,-0.11851972341537476,0.025829466059803963
1724854956986420700,3.893420654296875,-0.14535187184810638,-0.13774055242538452,0.017487380653619766
1724854956996471600,3.903471435546875,-0.19486616551876068,-0.19349223375320435,0.007414240390062332
1724854957006523600,3.913523681640625,-0.2207193225622177,-0.26707351207733154,0.000030360035452758893
1724854957016575500,3.923575439453125,-0.2273133099079132,-0.27971208095550537,-0.009284578263759613
1724854957026627600,3.933627685546875,-0.2146848738193512,-0.2988825738430023,0.002897785510867834
1724854957036679400,3.943679443359375,-0.19246025383472443,-0.2891441881656647,0.04502739757299423
1724854957046731500,3.9537314453125,-0.16812562942504883,-0.24995310604572296,0.09832710027694702
1724854957056783400,3.963783447265625,-0.16216494143009186,-0.18358367681503296,0.15375307202339172
1724854957066835700,3.973835693359375,-0.1622600108385086,-0.106537364423275,0.1998436003923416
1724854957076887600,3.983887451171875,-0.17974525690078735,-0.07017616182565689,0.22674712538719177
1724854957086939600,3.993939697265625,-0.2071116417646408,-0.056477125734090805,0.21918800473213196
1724854957096990500,4.003990478515625,-0.21509286761283875,0.009155148640275002,0.20224551856517792
1724854957107042600,4.01404248046875,-0.21560099720954895,-0.03217418119311333,0.1568085253238678
1724854957117094400,4.024094482421875,-0.22509223222732544,-0.04945729672908783,0.10224807262420654
1724854957127146800,4.034146728515625,-0.21523401141166687,-0.0698603093624115,0.0533234104514122
1724854957137198600,4.044198486328125,-0.2052953690290451,-0.09121006727218628,0.00008016114588826895
1724854957147250700,4.054250732421875,-0.19679135084152222,-0.08252789825201035,-0.0531817302107811
1724854957157302500,4.064302490234375,-0.1898607462644577,-0.07757069170475006,-0.12291580438613892
1724854957167354600,4.074354736328125,-0.1944674849510193,-0.047381628304719925,-0.18117724359035492
1724854957177406500,4.084406494140625,-0.187726229429245,-0.05085865408182144,-0.19232603907585144
1724854957187458600,4.09445849609375,-0.17672710120677948,-0.04272162914276123,-0.17285247147083282
1724854957197509600,4.104509521484375,-0.15702849626541138,-0.01679202914237976,-0.15429183840751648
1724854957207561700,4.114561767578125,-0.12846316397190094,-0.0004918858758173883,-0.11716843396425247
1724854957217613800,4.12461376953125,-0.1114860475063324,0.008390022441744804,-0.08200033009052277
1724854957227665700,4.134665771484375,-0.09661176055669785,0.015329421497881413,-0.035835497081279755
1724854957237717500,4.144717529296875,-0.07946526259183884,-0.0006205165409483016,-0.005785451270639896
1724854957247769600,4.15476953125,-0.036793168634176254,-0.034924428910017014,0.0026354643050581217
1724854957257821400,4.164821533203125,0.013401293195784092,-0.10227496922016144,-0.005446697119623423
1724854957267873500,4.17487353515625,0.07376343756914139,-0.2336399257183075,-0.0019917781464755535
1724854957277925600,4.184925537109375,0.13326671719551086,-0.2786063253879547,0.004968126770108938
1724854957287977700,4.194977783203125,0.19819724559783936,-0.2711462676525116,0.0011968245962634683
1724854957298028800,4.20502880859375,0.24895095825195312,-0.2344639003276825,-0.012201272882521152
1724854957308080600,4.21508056640625,0.29862159490585327,-0.12209554761648178,-0.04147686809301376
1724854957318132700,4.2251328125,0.3453744351863861,-0.07842157036066055,-0.09448789060115814
1724854957328184600,4.2351845703125,0.4053911864757538,-0.08569226413965225,-0.1491098552942276
1724854957338236700,4.245236572265625,0.47590553760528564,-0.023721307516098022,-0.1712772101163864
1724854957348288500,4.25528857421875,0.5632553696632385,0.03310362622141838,-0.20142419636249542
1724854957358340600,4.265340576171875,0.6984062790870667,-0.03750529885292053,-0.2910313010215759
1724854957368392700,4.275392822265625,0.820025622844696,-0.15034076571464539,-0.5043776631355286
1724854957378444500,4.285444580078125,0.9236481785774231,-0.10549180209636688,-0.7101055383682251
1724854957388496600,4.29549658203125,1.0057507753372192,-0.07690170407295227,-0.9272850155830383
1724854957398547700,4.305547607421875,1.0446206331253052,-0.0591093935072422,-1.140265941619873
1724854957408599600,4.315599609375,1.1098917722702026,-0.10056708753108978,-1.2746485471725464
1724854957418651600,4.325651611328125,1.1786391735076904,-0.10494478791952133,-1.3091503381729126
1724854957428703500,4.335703369140625,1.2845072746276855,-0.18333546817302704,-1.309798240661621
1724854957438755600,4.345755615234375,1.3615962266921997,-0.38675063848495483,-1.2665905952453613
1724854957448807700,4.3558076171875,1.3954076766967773,-0.5572946667671204,-1.2500633001327515
1724854957458859800,4.36585986328125,1.3983640670776367,-0.5781158208847046,-1.31315016746521
1724854957468911600,4.37591162109375,1.3418283462524414,-0.24224433302879333,-1.40154230594635
1724854957478963700,4.385963623046875,1.1656488180160522,0.08957994729280472,-1.4094222784042358
1724854957489015600,4.396015625,0.9275779128074646,0.23294323682785034,-1.2411280870437622
1724854957499066600,4.406066650390625,0.8423839211463928,0.11605469882488251,-0.9706915616989136
1724854957509118500,4.416118408203125,0.8473368883132935,0.0025981799699366093,-0.7344740033149719
1724854957519170600,4.426170654296875,0.8712310194969177,-0.12383885681629181,-0.6666464805603027
1724854957529222700,4.43622265625,1.0159698724746704,-0.2958284616470337,-0.6776607632637024
1724854957539274800,4.446274658203125,1.0343281030654907,-0.35068824887275696,-0.7155490517616272
1724854957549326600,4.45632666015625,1.043121099472046,-0.3830997049808502,-0.7055017352104187
1724854957559378700,4.466378662109375,0.9585686326026917,-0.33192306756973267,-0.6314520239830017
1724854957569430500,4.476430419921875,0.8519108891487122,-0.1764727681875229,-0.530651330947876
1724854957579482600,4.486482666015625,0.8697817325592041,-0.06674280762672424,-0.39182183146476746
1724854957589534500,4.496534423828125,0.7785085439682007,-0.0009084042394533753,-0.32241401076316833
1724854957599585500,4.50658544921875,0.7883880734443665,-0.040108006447553635,-0.2738477885723114
1724854957609637600,4.5166376953125,0.8538272976875305,-0.0038077877834439278,-0.29218950867652893
1724854957619689700,4.526689697265625,1.0781381130218506,-0.01041402481496334,-0.3074435591697693
1724854957629741600,4.536741455078125,1.2770522832870483,-0.004367584362626076,-0.30550000071525574
1724854957639793700,4.546793701171875,1.2743276357650757,0.012859872542321682,-0.34465378522872925
1724854957649845500,4.556845458984375,1.2687214612960815,0.09382902085781097,-0.3621840476989746
1724854957659897600,4.566897705078125,1.3427023887634277,0.1410154402256012,-0.3713224232196808
1724854957669949400,4.576949462890625,1.426348090171814,0.17213714122772217,-0.3989849388599396
1724854957680001800,4.587001708984375,1.611739993095398,0.05445019155740738,-0.43960559368133545
1724854957690052600,4.597052490234375,1.605079174041748,0.05703026428818703,-0.513462245464325
1724854957700104700,4.607104736328125,1.620754599571228,0.04189445450901985,-0.5634015798568726
1724854957710156800,4.61715673828125,1.6742310523986816,0.13681909441947937,-0.589224100112915
1724854957720208600,4.627208740234375,1.6979657411575317,0.14412201941013336,-0.6317204236984253
1724854957730260700,4.6372607421875,1.8490713834762573,0.24061952531337738,-0.5894851088523865
1724854957740312600,4.6473125,1.7992795705795288,0.26711106300354004,-0.5829768776893616
1724854957750364400,4.657364501953125,1.7946672439575195,0.3456370234489441,-0.5487182140350342
1724854957760416500,4.66741650390625,1.7730064392089844,0.4992838501930237,-0.5485022664070129
1724854957770468600,4.677468505859375,1.8136667013168335,0.4645860493183136,-0.5519611835479736
1724854957780520700,4.687520751953125,1.8616845607757568,0.5255668759346008,-0.5681297779083252
1724854957790571800,4.69757177734375,1.9157651662826538,0.5049454569816589,-0.5543292760848999
1724854957800623600,4.70762353515625,1.9260343313217163,0.5240110158920288,-0.5273855328559875
1724854957810675700,4.71767578125,1.8066236972808838,0.536997377872467,-0.49577513337135315
1724854957820727600,4.7277275390625,1.7902144193649292,0.6195897459983826,-0.4013301134109497
1724854957830779600,4.737779541015625,1.7872802019119263,0.5898987054824829,-0.30487123131752014
1724854957840831500,4.74783154296875,1.7664047479629517,0.565234363079071,-0.1938248574733734
1724854957850883800,4.7578837890625,1.8036879301071167,0.5852586627006531,-0.11837910860776901
1724854957860935700,4.767935791015625,1.6497811079025269,0.5226397514343262,-0.08231111615896225
1724854957870987800,4.77798779296875,1.5450462102890015,0.5252922773361206,-0.052678655833005905
1724854957881039600,4.78803955078125,1.5898687839508057,0.3782538175582886,0.05419612675905228
1724854957891090700,4.798090576171875,1.5290331840515137,0.3971814513206482,0.10103607177734375
1724854957901142500,4.808142578125,1.4270490407943726,0.41603103280067444,0.14769598841667175
1724854957911194600,4.818194580078125,1.3380037546157837,0.42459097504615784,0.1875685602426529
1724854957921246500,4.82824658203125,1.3225106000900269,0.35140755772590637,0.27520787715911865
1724854957931298800,4.838298828125,1.3430536985397339,0.3605445921421051,0.36273691058158875
1724854957941350700,4.8483505859375,1.350378155708313,0.30707526206970215,0.41612744331359863
1724854957951402800,4.85840283203125,1.1282758712768555,0.41841667890548706,0.3863876461982727
1724854957961454600,4.86845458984375,1.0094925165176392,0.5163877010345459,0.395108699798584
1724854957971506700,4.878506591796875,0.9445358514785767,0.49998345971107483,0.3855474293231964
1724854957981558500,4.88855859375,0.8748332262039185,0.530929684638977,0.36246952414512634
1724854957991609600,4.898609619140625,0.78385990858078,0.49856504797935486,0.3310500979423523
1724854958001661400,4.908661376953125,0.6937079429626465,0.455328106880188,0.264049232006073
1724854958011713500,4.918713623046875,0.6098311543464661,0.42580482363700867,0.1960858851671219
1724854958021765600,4.928765625,0.5183888077735901,0.4007391631603241,0.1421976238489151
1724854958031817700,4.938817626953125,0.401268869638443,0.36467409133911133,0.10915684700012207
1724854958041869600,4.94886962890625,0.3345031440258026,0.329537957906723,0.08352898061275482
1724854958051921700,4.958921630859375,0.2974703013896942,0.2579553723335266,0.1125907301902771
1724854958061973500,4.968973388671875,0.15048351883888245,0.3433307409286499,0.04653501138091087
1724854958072025600,4.979025634765625,0.0959925726056099,0.28685200214385986,0.014576279558241367
1724854958082077400,4.989077392578125,0.07694005221128464,0.303465336561203,-0.007210508454591036
1724854958092127700,4.999127685546875,0.05909554287791252,0.30562782287597656,-0.013250557705760002
1724854958102179800,5.009179931640625,0.03514041006565094,0.21467076241970062,-0.015782425180077553
1724854958112232000,5.01923193359375,-0.004400340840220451,0.19232763350009918,0.003597398055717349
1724854958122284000,5.029283935546875,-0.056044094264507294,0.04839496314525604,-0.024155404418706894
1724854958132335900,5.0393359375,-0.12497948855161667,0.04468837380409241,-0.045824747532606125
1724854958142388000,5.049387939453125,-0.1490137130022049,-0.07784606516361237,-0.0740627720952034
1724854958152439800,5.059439697265625,-0.19290953874588013,-0.09262847155332565,-0.06151263043284416
1724854958162492000,5.069491943359375,-0.18963384628295898,-0.07344172894954681,-0.04645458236336708
1724854958172543700,5.079543701171875,-0.2077862173318863,-0.014505705796182156,-0.013433250598609447
1724854958182596000,5.08959619140625,-0.20574410259723663,0.015863651409745216,-0.0067694890312850475
1724854958192647000,5.09964697265625,-0.20966188609600067,0.10010422766208649,-0.020964138209819794
1724854958202699000,5.109698974609375,-0.2171940952539444,0.2529377043247223,-0.059304334223270416
1724854958212750800,5.119750732421875,-0.2023666799068451,0.4197509288787842,-0.16410665214061737
1724854958222803000,5.129802978515625,-0.1635037064552307,0.6213218569755554,-0.3038664162158966
1724854958232854800,5.139854736328125,-0.12289982289075851,0.7463956475257874,-0.4376250207424164
1724854958242907000,5.149906982421875,-0.07992120087146759,0.7278344631195068,-0.5311924815177917
1724854958252958700,5.159958740234375,-0.03362400457262993,0.7193509936332703,-0.6067066788673401
1724854958263011000,5.170010986328125,0.01708151586353779,0.682850182056427,-0.693526566028595
1724854958273063000,5.18006298828125,0.07722208648920059,0.571666419506073,-0.7536247968673706
1724854958283114000,5.190114013671875,0.14566132426261902,0.4692481756210327,-0.7249920964241028
1724854958293165800,5.200165771484375,0.24967454373836517,0.30795037746429443,-0.6070601344108582
1724854958303218000,5.210218017578125,0.32104620337486267,0.23696434497833252,-0.4545605778694153
1724854958313269800,5.220269775390625,0.39578142762184143,0.21223236620426178,-0.2890658974647522
1724854958323321900,5.23032177734375,0.4560317099094391,0.31104815006256104,-0.12039937824010849
1724854958333373700,5.240373779296875,0.5125117897987366,0.3928109407424927,-0.003082076320424676
1724854958343426000,5.250426025390625,0.604848325252533,0.44310951232910156,0.13618633151054382
1724854958353478000,5.260477783203125,0.6411845088005066,0.5185241103172302,0.22049269080162048
1724854958363530000,5.270530029296875,0.6853018999099731,0.5507502555847168,0.26291126012802124
1724854958373581000,5.2805810546875,0.7243241667747498,0.5755741000175476,0.2793956995010376
1724854958383633000,5.2906328125,0.7252820730209351,0.4617721438407898,0.2806202173233032
1724854958393685000,5.30068505859375,0.708552360534668,0.4047256410121918,0.2615245580673218
1724854958403736800,5.31073681640625,0.751052975654602,0.3320000469684601,0.27188611030578613
1724854958413788700,5.32078857421875,0.6771395802497864,0.36164236068725586,0.19945824146270752
1724854958423840800,5.3308408203125,0.6519737839698792,0.34591957926750183,0.13554318249225616
1724854958433892900,5.340892822265625,0.6767885684967041,0.3523934781551361,0.10262437909841537
1724854958443945000,5.350945068359375,0.7193512320518494,0.41039177775382996,0.12496377527713776
1724854958453996800,5.360996826171875,0.7791088223457336,0.5306124687194824,0.1777644008398056
1724854958464047900,5.3710478515625,0.7740656137466431,0.3284849524497986,0.2661762833595276
1724854958474100000,5.381099853515625,0.7515991926193237,0.4598381817340851,0.3022086024284363
1724854958484151800,5.39115185546875,0.7350804209709167,0.47382214665412903,0.2966495156288147
1724854958494204000,5.401203857421875,0.702186644077301,0.4451945126056671,0.2815645635128021
1724854958504255700,5.411255859375,0.7036654949188232,0.44176676869392395,0.27061763405799866
1724854958514308000,5.42130810546875,0.62972092628479,0.4339224100112915,0.20734094083309174
1724854958524360000,5.43135986328125,0.5498080253601074,0.43350616097450256,0.1563137024641037
1724854958534412000,5.441412109375,0.5112733840942383,0.3889616131782532,0.1208377406001091
1724854958544464000,5.4514638671875,0.502920925617218,0.4161285161972046,0.1427462249994278
1724854958554515700,5.461515625,0.4744653105735779,0.41404563188552856,0.16796982288360596
1724854958564566800,5.47156689453125,0.36780598759651184,0.434184730052948,0.17197228968143463
1724854958574619000,5.481618896484375,0.21879012882709503,0.32064327597618103,0.17013019323349
1724854958584670700,5.491670654296875,0.12507082521915436,0.15701651573181152,0.1981130838394165
1724854958594723000,5.50172314453125,0.05211087316274643,0.039137814193964005,0.19740521907806396
1724854958604775000,5.51177490234375,-0.016152869910001755,-0.013317403383553028,0.19584247469902039
1724854958614827000,5.521826904296875,-0.10783059149980545,0.01781095564365387,0.1545456349849701
1724854958624878800,5.53187890625,-0.0862688422203064,0.21435384452342987,-0.0221463143825531
1724854958634931000,5.541930908203125,0.06676438450813293,0.6933382749557495,-0.3838541805744171
1724854958644982800,5.551982666015625,0.2017861157655716,0.9671096205711365,-0.6654824018478394
1724854958655033900,5.562033935546875,0.18562978506088257,0.9342827200889587,-0.8386371731758118
1724854958665085700,5.572085693359375,0.4157783091068268,0.8264273405075073,-0.854839563369751
1724854958675137800,5.5821376953125,0.6068055033683777,0.9866604208946228,-0.8060661554336548
1724854958685190000,5.59218994140625,0.7202655076980591,1.1204986572265625,-0.5942881107330322
1724854958695242000,5.602241943359375,0.6558724045753479,1.0764150619506836,-0.42588499188423157
1724854958705293800,5.6122939453125,0.5041846036911011,0.9573147892951965,-0.2947070002555847
1724854958715346000,5.622345947265625,0.3695372939109802,0.6743174195289612,-0.26340100169181824
1724854958725397800,5.632397705078125,0.2850506603717804,0.8837398886680603,-0.28779688477516174
1724854958735449900,5.642449951171875,0.09799926728010178,0.5713028907775879,-0.37091973423957825
1724854958745501000,5.6525009765625,0.12792760133743286,0.8417612910270691,-0.35471972823143005
1724854958755552800,5.662552734375,0.25383439660072327,0.8409913778305054,-0.3449142575263977
1724854958765604900,5.67260498046875,0.43304064869880676,0.8059207201004028,-0.3106563985347748
1724854958775657000,5.682656982421875,0.5728020071983337,0.7095580101013184,-0.2556333541870117
1724854958785708800,5.692708740234375,0.6869163513183594,0.5020359754562378,-0.19888700544834137
1724854958795761000,5.702760986328125,0.8341707587242126,0.36870479583740234,-0.0862259641289711
1724854958805812700,5.712812744140625,0.9541094303131104,0.3329095244407654,0.0323648639023304
1724854958815864800,5.72286474609375,0.8284159302711487,0.13197694718837738,-0.03881850093603134
1724854958825916700,5.732916748046875,0.7231976389884949,0.48454272747039795,0.017076455056667328
1724854958835967700,5.7429677734375,0.6934434771537781,0.3479079008102417,0.050144925713539124
1724854958846020000,5.75302001953125,0.6776101589202881,0.210907444357872,0.11390633136034012
1724854958856072000,5.763072021484375,0.6793806552886963,0.18674884736537933,0.13434448838233948
1724854958866124000,5.7731240234375,0.6999461054801941,0.18646176159381866,0.13737010955810547
1724854958876176000,5.78317578125,0.7632257342338562,0.15933479368686676,0.1478070318698883
1724854958886228000,5.79322802734375,0.8088398575782776,0.11019894480705261,0.19636978209018707
1724854958896279800,5.80327978515625,0.8111421465873718,0.08635646104812622,0.22588320076465607
1724854958906332000,5.813331787109375,0.8066653609275818,0.05493808165192604,0.21587637066841125
1724854958916384000,5.823384033203125,0.8060693740844727,0.0026943201664835215,0.18063955008983612
1724854958926434800,5.833434814453125,0.7931360006332397,-0.010378604754805565,0.12384311854839325
1724854958936487000,5.84348681640625,0.7602962851524353,0.02466246858239174,0.08727205544710159
1724854958946539000,5.8535390625,0.7191610932350159,0.023068301379680634,0.07851025462150574
1724854958956590800,5.8635908203125,0.6666773557662964,0.0833422914147377,0.07978004962205887
1724854958966643000,5.873642822265625,0.6344262361526489,0.08229061216115952,0.07827909290790558
1724854958976694800,5.88369482421875,0.5432137250900269,-0.3001294732093811,0.025247300043702126
1724854958986747000,5.893746826171875,0.4585486650466919,0.09330571442842484,0.054603591561317444
1724854958996798700,5.903798828125,0.43673816323280334,0.02815493941307068,-0.04776006564497948
1724854959006849800,5.913849853515625,0.4320603311061859,0.022901853546500206,-0.06754149496555328
1724854959016902000,5.92390185546875,0.47201892733573914,-0.012282232753932476,-0.06894178688526154
1724854959026954000,5.9339541015625,0.484725683927536,-0.0005853627808392048,-0.036379579454660416
1724854959037005800,5.944005859375,0.44764062762260437,0.02564038150012493,0.0025334651581943035
1724854959047058000,5.954057861328125,0.4371166229248047,0.006422212813049555,0.028416993096470833
1724854959057109800,5.96410986328125,0.439633309841156,0.000395745737478137,0.040520526468753815
1724854959067161900,5.974161865234375,0.4491194784641266,-0.002109223511070013,0.0704808235168457
1724854959077213700,5.984213623046875,0.44203707575798035,0.02076520025730133,0.12855398654937744
1724854959087266000,5.99426611328125,0.4210798442363739,0.020545754581689835,0.15754088759422302
1724854959097316900,6.00431689453125,0.3876214921474457,0.0008088020258583128,0.18907111883163452
1724854959107368700,6.01436865234375,0.40827909111976624,-0.07775790989398956,0.1937556266784668
1724854959117420800,6.0244208984375,0.44132786989212036,-0.10902821272611618,0.19782626628875732
1724854959127472600,6.03447265625,0.47480061650276184,-0.10183341801166534,0.22035181522369385
1724854959137524700,6.044524658203125,0.5010910630226135,-0.08795249462127686,0.2709856927394867
1724854959147576800,6.054576904296875,0.4761050343513489,-0.10021395236253738,0.32693392038345337
1724854959157628700,6.064628662109375,0.46275487542152405,-0.11119842529296875,0.35157161951065063
1724854959167680800,6.0746806640625,0.469409316778183,-0.08534765243530273,0.3847000002861023
1724854959177731800,6.08473193359375,0.4485141336917877,-0.09073762595653534,0.38444647192955017
1724854959187783700,6.09478369140625,0.4100671410560608,-0.11053875833749771,0.3271229863166809
1724854959197835800,6.104835693359375,0.3562617003917694,-0.13879171013832092,0.3097834289073944
1724854959207887600,6.1148876953125,0.33772343397140503,-0.14801742136478424,0.3253770172595978
1724854959217940000,6.12493994140625,0.32848814129829407,-0.14459872245788574,0.40261614322662354
1724854959227991800,6.13499169921875,0.26990339159965515,-0.21281053125858307,0.4544340670108795
1724854959238044000,6.1450439453125,0.2445940375328064,-0.26510941982269287,0.43159720301628113
1724854959248095700,6.155095703125,0.2794087529182434,-0.30728644132614136,0.3987487256526947
1724854959258146800,6.165146728515625,0.31635424494743347,-0.29271841049194336,0.4032822251319885
1724854959268198700,6.17519873046875,0.3237599730491638,-0.25437024235725403,0.44384321570396423
1724854959278250800,6.185250732421875,0.2760361135005951,-0.24777758121490479,0.46025708317756653
1724854959288302600,6.195302490234375,0.21855071187019348,-0.23144041001796722,0.4805687367916107
1724854959298355000,6.20535498046875,0.1949649602174759,-0.21041236817836761,0.49548110365867615
1724854959308406800,6.21540673828125,0.2342788130044937,-0.21905405819416046,0.5303666591644287
1724854959318459000,6.225458984375,0.2647496461868286,-0.2058117538690567,0.5660881996154785
1724854959328510700,6.2355107421875,0.26437413692474365,-0.22067219018936157,0.5962854623794556
1724854959338561800,6.245561767578125,0.2766728699207306,-0.2637948989868164,0.6187068819999695
1724854959348613600,6.255613525390625,0.3220214545726776,-0.28764110803604126,0.671640157699585
1724854959358665700,6.265665771484375,0.35291916131973267,-0.2852133512496948,0.7366998791694641
1724854959368717600,6.275717529296875,0.38276147842407227,-0.3016884922981262,0.7480398416519165
1724854959378769700,6.285769775390625,0.4133833050727844,-0.3327702283859253,0.7618744373321533
1724854959388821800,6.29582177734375,0.42390573024749756,-0.33632075786590576,0.7851808667182922
1724854959398873900,6.305873779296875,0.41239553689956665,-0.33361420035362244,0.8252715468406677
1724854959408925700,6.31592578125,0.40799814462661743,-0.3684659004211426,0.8552467226982117
1724854959418976800,6.325976806640625,0.42420321702957153,-0.39659368991851807,0.8948399424552917
1724854959429028900,6.33602880859375,0.42398402094841003,-0.38431596755981445,0.9381062388420105
1724854959439080700,6.346080810546875,0.40575283765792847,-0.39200931787490845,0.9620698690414429
1724854959449132800,6.3561328125,0.4068673551082611,-0.3993026614189148,0.994269609451294
1724854959459184600,6.3661845703125,0.4309644401073456,-0.3957909941673279,1.0278515815734863
1724854959469236700,6.37623681640625,0.462910920381546,-0.3828965127468109,1.0295573472976685
1724854959479288800,6.386288818359375,0.46194952726364136,-0.3584707975387573,1.0385502576828003
1724854959489340700,6.396340576171875,0.4187575876712799,-0.36184900999069214,1.0426642894744873
1724854959499391700,6.406391845703125,0.3611355721950531,-0.4209533631801605,1.0583215951919556
1724854959509443800,6.41644384765625,0.33477479219436646,-0.47962573170661926,1.0667598247528076
1724854959519495700,6.42649560546875,0.3282836079597473,-0.47150707244873047,1.0785213708877563
1724854959529547800,6.4365478515625,0.3044102191925049,-0.4289470911026001,1.0817432403564453
1724854959539599600,6.446599609375,0.27720069885253906,-0.43453893065452576,1.0687587261199951
1724854959549652000,6.45665185546875,0.24883697926998138,-0.4700165092945099,1.0733598470687866
1724854959559703800,6.466703857421875,0.2007269710302353,-0.5032298564910889,1.0349276065826416
1724854959569756000,6.476755859375,0.16385763883590698,-0.5269354581832886,0.9366528987884521
1724854959579806700,6.486806640625,0.11054541915655136,-0.5115375518798828,0.9426431655883789
1724854959589858800,6.49685888671875,0.039690952748060226,-0.5060461163520813,0.8785011768341064
1724854959599910700,6.50691064453125,-0.0300870630890131,-0.5105245113372803,0.8789920210838318
1724854959609962800,6.516962646484375,-0.10590779036283493,-0.5216546654701233,0.8992421627044678
1724854959620014600,6.5270146484375,-0.1345391720533371,-0.533190131187439,0.9487031698226929
1724854959630066700,6.537066650390625,-0.1470685452222824,-0.5271604657173157,0.9845834374427795
1724854959640118800,6.547118896484375,-0.19278064370155334,-0.41050177812576294,0.9341341257095337
1724854959650171000,6.5571708984375,-0.2483094036579132,-0.33617427945137024,0.9339426159858704
1724854959660221700,6.5672216796875,-0.2699830234050751,-0.30365869402885437,0.8930082321166992
1724854959670273800,6.577273681640625,-0.2658862769603729,-0.27569204568862915,0.8921301960945129
1724854959680325600,6.58732568359375,-0.2532205581665039,-0.23968608677387238,0.8621264696121216
1724854959690377700,6.597377685546875,-0.24064163863658905,-0.22851254045963287,0.8815057873725891
1724854959700429600,6.6074296875,-0.24653440713882446,-0.2440030723810196,0.8907426595687866
1724854959710481700,6.617481689453125,-0.2777663767337799,-0.3250654339790344,0.8952362537384033
1724854959720533800,6.62753369140625,-0.3316445052623749,-0.35558685660362244,0.8863090872764587
1724854959730585900,6.6375859375,-0.3724316358566284,-0.3872193694114685,0.9245400428771973
1724854959740637000,6.647636962890625,-0.43042194843292236,-0.3718361556529999,0.9291715621948242
1724854959750688800,6.657688720703125,-0.4335527718067169,-0.3005395829677582,0.964590311050415
1724854959760740900,6.667740966796875,-0.4443840980529785,-0.2320244461297989,0.9576354622840881
1724854959770792700,6.677792724609375,-0.4551645815372467,-0.17185911536216736,0.9444572925567627
1724854959780844800,6.6878447265625,-0.4395824372768402,-0.08022905886173248,0.9323926568031311
1724854959790896600,6.697896728515625,-0.43146246671676636,-0.14414039254188538,0.9164571166038513
1724854959800948700,6.70794873046875,-0.445951372385025,-0.05795810744166374,0.9047368168830872
1724854959811000800,6.718000732421875,-0.43455439805984497,0.0350959338247776,0.9283443689346313
1724854959821052700,6.728052734375,-0.4579976499080658,0.025491245090961456,0.9284916520118713
1724854959831103700,6.738103759765625,-0.4945484697818756,-0.050633084028959274,0.9452818036079407
1724854959841155800,6.74815576171875,-0.4675610661506653,0.08010468631982803,0.9033581018447876
1724854959851207700,6.758207763671875,-0.4747563898563385,0.054432082921266556,0.865006148815155
1724854959861259800,6.768259765625,-0.5107969641685486,-0.1058204397559166,0.8387194275856018
1724854959871311600,6.7783115234375,-0.5034836530685425,0.09391557425260544,0.8101852536201477
1724854959881363700,6.78836376953125,-0.5313147306442261,0.13459163904190063,0.8137810826301575
1724854959891415800,6.798415771484375,-0.600047767162323,-0.06909198313951492,0.8021816611289978
1724854959901467000,6.808466796875,-0.6216201186180115,0.20084895193576813,0.8027425408363342
1724854959911518700,6.818518798828125,-0.6344555020332336,0.24503877758979797,0.7955634593963623
1724854959921570800,6.82857080078125,-0.6805276870727539,-0.007310110609978437,0.7328127026557922
1724854959931622700,6.83862255859375,-0.670968770980835,0.1516643613576889,0.7156462669372559
1724854959941674800,6.8486748046875,-0.6564217805862427,0.16573171317577362,0.703612208366394
1724854959951726600,6.8587265625,-0.6402755975723267,0.05715090408921242,0.6688427925109863
1724854959961778700,6.86877880859375,-0.6527202725410461,-0.227364182472229,0.6154075264930725
1724854959971830800,6.878830810546875,-0.6637724041938782,-0.0144108971580863,0.5914036631584167
1724854959981883000,6.8888828125,-0.6485787630081177,-0.034091923385858536,0.5683270692825317
1724854959991933700,6.89893359375,-0.628149151802063,-0.10665720701217651,0.5171771049499512
1724854960001985800,6.90898583984375,-0.6523628830909729,-0.23415470123291016,0.4125633239746094
1724854960012037600,6.91903759765625,-0.6183772087097168,-0.07508276402950287,0.36688292026519775
1724854960022089700,6.92908984375,-0.5905037522315979,-0.1513543725013733,0.31405192613601685
1724854960032141600,6.9391416015625,-0.5549705624580383,-0.2892150282859802,0.26613742113113403
1724854960042193700,6.949193603515625,-0.5780050158500671,-0.3796272277832031,0.22290924191474915
1724854960052245800,6.959245849609375,-0.649069607257843,-0.4449803829193115,0.20935535430908203
1724854960062297900,6.9692978515625,-0.7229790091514587,-0.44950562715530396,0.15793956816196442
1724854960072349000,6.979348876953125,-0.805013120174408,-0.3446604609489441,0.10394451022148132
1724854960082400800,6.98940087890625,-0.8122313618659973,-0.30003491044044495,0.08662943542003632
1724854960092453400,6.999453369140625,-0.7763817310333252,-0.33692529797554016,0.09375578910112381
1724854960102505500,7.00950537109375,-0.7237025499343872,-0.38111406564712524,0.054188404232263565
1724854960112557600,7.0195576171875,-0.6994087100028992,-0.40497198700904846,-0.0018122810870409012
1724854960122609700,7.029609619140625,-0.7085822224617004,-0.3865929841995239,-0.04945037513971329
1724854960132661500,7.03966162109375,-0.6749312877655029,-0.36957964301109314,-0.05097449943423271
1724854960142712600,7.049712646484375,-0.6643079519271851,-0.4004318416118622,-0.05512423813343048
1724854960152764700,7.0597646484375,-0.6710087060928345,-0.3692619204521179,-0.0400366336107254
1724854960162816500,7.06981640625,-0.6866089701652527,-0.34763866662979126,-0.01750921830534935
1724854960172868600,7.07986865234375,-0.7378647327423096,-0.33551886677742004,0.008207862265408039
1724854960182920400,7.08992041015625,-0.7467418313026428,-0.313927561044693,0.029375465586781502
1724854960192972500,7.09997265625,-0.7400274872779846,-0.30504274368286133,0.053337521851062775
1724854960203024600,7.110024658203125,-0.7212638854980469,-0.29948657751083374,0.054114632308483124
1724854960213076500,7.120076416015625,-0.6885355114936829,-0.29859602451324463,0.05377934128046036
1724854960223128600,7.130128662109375,-0.6503812074661255,-0.27008768916130066,0.03171824663877487
1724854960233179600,7.1401796875,-0.5758734345436096,-0.2928723394870758,0.028863871470093727
1724854960243231500,7.1502314453125,-0.5232938528060913,-0.30326560139656067,0.030074279755353928
1724854960253283600,7.16028369140625,-0.47159042954444885,-0.2968361973762512,0.021030450239777565
1724854960263335400,7.17033544921875,-0.4333761930465698,-0.3212869465351105,0.043169040232896805
1724854960273387500,7.180387451171875,-0.436389297246933,-0.3548260033130646,0.1288493275642395
1724854960283439600,7.190439697265625,-0.49971020221710205,-0.3656080663204193,0.16994962096214294
1724854960293491700,7.20049169921875,-0.6609126925468445,-0.23646233975887299,0.14425703883171082
1724854960303543600,7.21054345703125,-0.7559537291526794,-0.19476176798343658,0.13612774014472961
1724854960313594600,7.2205947265625,-0.7436307072639465,-0.16861777007579803,0.14715535938739777
1724854960323646500,7.230646484375,-0.6925774216651917,-0.18246674537658691,0.1460120677947998
1724854960333698600,7.240698486328125,-0.6046430468559265,-0.2011360377073288,0.1299382895231247
1724854960343750400,7.25075048828125,-0.510162353515625,-0.12603223323822021,0.10523773729801178
1724854960353802500,7.260802490234375,-0.4283614754676819,-0.04152880236506462,0.09939795732498169
1724854960363854600,7.2708544921875,-0.40265369415283203,0.02020833268761635,0.13778209686279297
1724854960373906700,7.28090673828125,-0.47101837396621704,0.0026133600622415543,0.19974613189697266
1724854960383958500,7.29095849609375,-0.5158817172050476,-0.1794901341199875,0.3011912703514099
1724854960394009600,7.301009521484375,-0.52772057056427,-0.1034931018948555,0.4285303056240082
1724854960404061400,7.3110615234375,-0.5923738479614258,-0.0368187353014946,0.5604071021080017
1724854960414113500,7.321113525390625,-0.6048027873039246,0.07414453476667404,0.5805901288986206
1724854960424165400,7.331165283203125,-0.5736553072929382,0.13252368569374084,0.5191401243209839
1724854960434217500,7.341217529296875,-0.48715102672576904,0.18261082470417023,0.4161703288555145
1724854960444269300,7.351269287109375,-0.3422563970088959,0.1803460717201233,0.3281400501728058
1724854960454321700,7.36132177734375,-0.2512623369693756,0.14958709478378296,0.2900368869304657
1724854960464373500,7.37137353515625,-0.22228340804576874,0.16205920279026031,0.23776941001415253
1724854960474424600,7.381424560546875,-0.22399555146694183,0.22920362651348114,0.1861187368631363
1724854960484476700,7.3914765625,-0.18286488950252533,0.24734054505825043,0.16191832721233368
1724854960494528500,7.401528564453125,-0.22070574760437012,0.24656744301319122,0.08699854463338852
1724854960504580600,7.41158056640625,-0.21045976877212524,0.13563185930252075,0.03770902752876282
1724854960514632400,7.421632568359375,-0.1940712034702301,-0.05486777424812317,-0.03376621752977371
1724854960524684500,7.4316845703125,-0.0637587383389473,-0.0679825097322464,-0.1028725877404213
1724854960534736600,7.441736572265625,-0.04270724952220917,-0.10116896033287048,-0.13972167670726776
1724854960544788500,7.45178857421875,-0.030309969559311867,-0.2089734524488449,-0.10032393783330917
1724854960554839600,7.461839599609375,-0.03225461021065712,-0.21810384094715118,0.005115665961056948
1724854960564891600,7.4718916015625,-0.03175180405378342,-0.12092748284339905,0.1025301069021225
1724854960574943500,7.481943603515625,-0.02508750930428505,-0.04145210236310959,0.18153198063373566
1724854960584995600,7.49199560546875,-0.03863634169101715,0.022699985653162003,0.24299933016300201
1724854960595047400,7.50204736328125,0.005260009318590164,0.07721356302499771,0.2829241156578064
1724854960605099500,7.512099609375,0.07979123294353485,0.1351005584001541,0.3108643889427185
1724854960615151600,7.522151611328125,0.11867338418960571,0.1929505467414856,0.2824458181858063
1724854960625203700,7.53220361328125,0.23678724467754364,0.1236439123749733,0.2920997738838196
1724854960635254500,7.542254638671875,0.2954883873462677,0.08982336521148682,0.2594051957130432
1724854960645306600,7.552306640625,0.34733664989471436,0.1290101855993271,0.20412810146808624
1724854960655358500,7.5623583984375,0.38838130235671997,0.1908642202615738,0.16508004069328308
1724854960665410600,7.57241064453125,0.3802775740623474,0.18425585329532623,0.1654784381389618
1724854960675462400,7.58246240234375,0.32826441526412964,0.021018199622631073,0.16580121219158173
1724854960685514500,7.592514404296875,0.29050347208976746,-0.15672889351844788,0.1549922525882721
1724854960695566600,7.602566650390625,0.2727718651294708,-0.1953388750553131,0.1460821032524109
1724854960705618700,7.61261865234375,0.21091942489147186,-0.18695470690727234,0.08894451707601547
1724854960715669500,7.62266943359375,0.2153080552816391,-0.1349508911371231,0.08848219364881516
1724854960725721600,7.6327216796875,0.23802907764911652,-0.051542554050683975,0.0894947275519371
1724854960735773400,7.6427734375,0.26751479506492615,0.011263040825724602,0.08131429553031921
1724854960745825500,7.652825439453125,0.29919442534446716,0.0632716491818428,0.0485433004796505
1724854960755877400,7.66287744140625,0.3261887729167938,0.14701394736766815,-0.01564633846282959
1724854960765929500,7.672929443359375,0.34641146659851074,0.24073165655136108,-0.10422706604003906
1724854960775981300,7.682981201171875,0.3331449329853058,0.25912556052207947,-0.19819803535938263
1724854960786033700,7.69303369140625,0.2920909821987152,0.20462743937969208,-0.3040909171104431
1724854960796084700,7.703084716796875,0.2504820227622986,0.09795106202363968,-0.41621506214141846
1724854960806136600,7.713136474609375,0.21092954277992249,-0.01823785901069641,-0.5033038854598999
1724854960816188700,7.723188720703125,0.1887456774711609,-0.10349976271390915,-0.5731684565544128
1724854960826240500,7.733240478515625,0.17345833778381348,-0.12523674964904785,-0.621061384677887
1724854960836292600,7.743292724609375,0.16842415928840637,-0.11445041000843048,-0.6491881012916565
1724854960846344400,7.753344482421875,0.16247040033340454,-0.08755328506231308,-0.6620818376541138
1724854960856396500,7.763396484375,0.164060577750206,-0.06945550441741943,-0.65676349401474
1724854960866448600,7.77344873046875,0.17382211983203888,-0.07513044029474258,-0.6423707008361816
1724854960876499700,7.783499755859375,0.19392846524715424,-0.09241008758544922,-0.6402931809425354
1724854960886551600,7.793551513671875,0.20583997666835785,-0.1126871332526207,-0.6266066431999207
1724854960896603600,7.803603759765625,0.20770739018917084,-0.14466316998004913,-0.620532214641571
1724854960906655500,7.813655517578125,0.1873411238193512,-0.17171557247638702,-0.6241951584815979
1724854960916707600,7.82370751953125,0.15157434344291687,-0.1793638914823532,-0.6285020112991333
1724854960926759400,7.833759521484375,0.12855690717697144,-0.18961946666240692,-0.634503960609436
1724854960936811500,7.8438115234375,0.1203911229968071,-0.1933622658252716,-0.627408504486084
1724854960946863600,7.853863525390625,0.12049658596515656,-0.2341025173664093,-0.5970287919044495
1724854960956914400,7.86391455078125,0.14235873520374298,-0.3313917815685272,-0.5882102251052856
1724854960966966500,7.873966552734375,0.16101312637329102,-0.3341617286205292,-0.611485481262207
1724854960977018600,7.8840185546875,0.18614935874938965,-0.25658679008483887,-0.6557037830352783
1724854960987070500,7.894070556640625,0.24983859062194824,-0.1010533794760704,-0.6985258460044861
1724854960997122600,7.90412255859375,0.30666300654411316,-0.028432173654437065,-0.6911608576774597
1724854961007174400,7.91417431640625,0.3468492925167084,-0.05169488489627838,-0.6778882145881653
1724854961017226500,7.9242265625,0.3076017498970032,-0.12865731120109558,-0.6308826208114624
1724854961027277600,7.934277587890625,0.26571956276893616,-0.10691739618778229,-0.5707196593284607
1724854961037329400,7.944329345703125,0.2681792676448822,-0.14363786578178406,-0.5267242789268494
1724854961047381800,7.9543818359375,0.22242935001850128,-0.15104012191295624,-0.48599040508270264
1724854961057433600,7.96443359375,0.2107473909854889,-0.12158901244401932,-0.4533640146255493
1724854961067485700,7.974485595703125,0.21858400106430054,-0.10912808775901794,-0.43450406193733215
1724854961077537500,7.98453759765625,0.2411457747220993,-0.14042928814888,-0.43100839853286743
1724854961087589400,7.99458935546875,0.21422360837459564,-0.08272816985845566,-0.3943531811237335
1724854961097641000,8.004640869140625,0.26923733949661255,-0.10305927693843842,-0.3543511629104614
1724854961107692000,8.014692138671874,0.27491679787635803,-0.11906833201646805,-0.3217519223690033
1724854961117743900,8.024743896484376,0.22152520716190338,0.0735064446926117,-0.29073941707611084
1724854961127796000,8.0347958984375,0.2313767671585083,0.25458434224128723,-0.28692683577537537
1724854961137847800,8.044847900390625,0.22466160356998444,0.2701244354248047,-0.3366435468196869
1724854961147900200,8.054900146484375,0.25578463077545166,0.286767840385437,-0.3792663514614105
1724854961157952000,8.064951904296874,0.231716588139534,0.28770262002944946,-0.424953430891037
1724854961168004000,8.075004150390624,0.22546374797821045,0.31768661737442017,-0.45571985840797424
1724854961178056000,8.085055908203126,0.23282551765441895,0.36623072624206543,-0.46100330352783203
1724854961188107000,8.09510693359375,0.2556397616863251,0.3410364091396332,-0.4850636422634125
1724854961198159000,8.1051591796875,0.27336814999580383,0.35007917881011963,-0.4926006495952606
1724854961208211000,8.1152109375,0.2819209098815918,0.3814171254634857,-0.5018308758735657
1724854961218262800,8.1252626953125,0.31421199440956116,0.38508349657058716,-0.5082195401191711
1724854961228315000,8.13531494140625,0.36161544919013977,0.3488306999206543,-0.49553918838500977
1724854961238367000,8.145366943359376,0.41427335143089294,0.30823853611946106,-0.48255571722984314
1724854961248419000,8.155419189453125,0.4174899160861969,0.32386675477027893,-0.46468672156333923
1724854961258470100,8.16547021484375,0.4451199471950531,0.2998644709587097,-0.452676385641098
1724854961268522000,8.17552197265625,0.5281565189361572,0.234835684299469,-0.41551145911216736
1724854961278574000,8.185573974609374,0.5435605049133301,0.2920968234539032,-0.3767209053039551
1724854961288626000,8.1956259765625,0.5488964319229126,0.37759336829185486,-0.33749920129776
1724854961298678000,8.205677978515626,0.5838706493377686,0.3899751901626587,-0.26040390133857727
1724854961308729900,8.215729736328125,0.587953507900238,0.44831201434135437,-0.21112050116062164
1724854961318782200,8.2257822265625,0.6255544424057007,0.4498222768306732,-0.19966010749340057
1724854961328834000,8.235833984375,0.6101261973381042,0.5070807933807373,-0.23927144706249237
1724854961338885000,8.245885009765624,0.6508443355560303,0.5306689143180847,-0.2981768250465393
1724854961348937000,8.25593701171875,0.6341588497161865,0.5764462947845459,-0.3256593346595764
1724854961358989000,8.265989013671875,0.6738258004188538,0.5302619934082031,-0.29182279109954834
1724854961369041000,8.276041015625,0.7839137315750122,0.41189834475517273,-0.2227257490158081
1724854961379093000,8.286093017578125,0.7658838629722595,0.39402106404304504,-0.15538106858730316
1724854961389144800,8.296144775390625,0.7515602707862854,0.4018539488315582,-0.11799534410238266
1724854961399197200,8.306197265625,0.7583537697792053,0.3981494903564453,-0.1028323695063591
1724854961409248000,8.316248046875,0.8333811163902283,0.3377167880535126,-0.07816058397293091
1724854961419300000,8.326300048828125,0.921034574508667,0.3680190443992615,-0.08539745211601257
1724854961429352000,8.33635205078125,0.9050548076629639,0.3990163505077362,-0.11135022342205048
1724854961439404000,8.346404052734375,0.9172707200050354,0.43399032950401306,-0.1316102296113968
1724854961449455900,8.356455810546874,0.8662202954292297,0.5063995718955994,-0.15480822324752808
1724854961459508000,8.366508056640624,0.9120250940322876,0.46092313528060913,-0.1403946578502655
1724854961469559800,8.376559814453126,0.9339575171470642,0.48043346405029297,-0.14498569071292877
1724854961479612200,8.386612060546875,0.7980732321739197,0.5358319878578186,-0.2023879885673523
1724854961489663000,8.3966630859375,0.7606613636016846,0.5729109048843384,-0.2661249041557312
1724854961499715000,8.406715087890625,0.7862040400505066,0.5870203375816345,-0.3073176145553589
1724854961509767200,8.41676708984375,0.8006820678710938,0.6015052795410156,-0.34676462411880493
1724854961519819000,8.426819091796874,0.7436211705207825,0.7182286977767944,-0.43023765087127686
1724854961529871000,8.43687109375,0.7022137641906738,0.7934315800666809,-0.5025328993797302
1724854961539923000,8.4469228515625,0.6307364106178284,0.815838098526001,-0.5756430625915527
1724854961549975000,8.45697509765625,0.6101216673851013,0.9472195506095886,-0.6372808814048767
1724854961560025900,8.46702587890625,0.4571380019187927,0.9571174383163452,-0.7340225577354431
1724854961570078000,8.477077880859374,0.4280988872051239,0.9632374048233032,-0.8159424662590027
1724854961580130000,8.487130126953126,0.49964097142219543,0.7980974316596985,-0.8408329486846924
1724854961590182100,8.49718212890625,0.42984539270401,0.7014830112457275,-0.9020190238952637
1724854961600234000,8.50723388671875,0.365291953086853,0.8682776093482971,-0.9540601372718811
1724854961610286000,8.5172861328125,0.24290291965007782,0.836381196975708,-1.0393593311309814
1724854961620338000,8.527337890625,0.27151647210121155,0.8967142701148987,-1.0367324352264404
1724854961630389000,8.537388916015624,0.3098739683628082,0.9719259738922119,-0.9661586284637451
1724854961640440800,8.54744091796875,0.24426034092903137,1.0836514234542847,-0.9756277799606323
1724854961650493000,8.557492919921875,0.247988760471344,1.1813620328903198,-0.9387949109077454
1724854961660545000,8.567544921875,0.32395249605178833,1.0519672632217407,-0.9199842214584351
1724854961670597000,8.57759716796875,0.38016223907470703,1.05574631690979,-0.9052824974060059
1724854961680649000,8.58764892578125,0.4323543608188629,1.1054954528808594,-0.8089684844017029
1724854961690701000,8.597701171875,0.6316608190536499,1.0438292026519775,-0.6318293809890747
1724854961700752100,8.607752197265626,0.6315662264823914,0.973038375377655,-0.6059091091156006
1724854961710804000,8.617803955078125,0.551709771156311,0.9679203033447266,-0.7059685587882996
1724854961720856000,8.62785595703125,0.5400712490081787,0.851933479309082,-0.7313399910926819
1724854961730908000,8.637907958984375,0.49758315086364746,0.7731934189796448,-0.6531903147697449
1724854961740960000,8.6479599609375,0.4779338240623474,0.8418723344802856,-0.4929436445236206
1724854961751012000,8.65801220703125,0.49662095308303833,0.6990752816200256,-0.418008416891098
1724854961761064000,8.66806396484375,0.445168137550354,0.6197221279144287,-0.4330739378929138
1724854961771115000,8.678114990234375,0.45940861105918884,0.43670356273651123,-0.3928884267807007
1724854961781167000,8.6881669921875,0.4416565001010895,0.37900403141975403,-0.31889915466308594
1724854961791219000,8.698218994140625,0.4231747090816498,0.2938137650489807,-0.2229694277048111
1724854961801271000,8.70827099609375,0.41414472460746765,0.0702616423368454,-0.1754370629787445
1724854961811323000,8.718322998046874,0.38369572162628174,-0.10141876339912415,-0.19590212404727936
1724854961821375000,8.728375,0.3146626055240631,-0.41645100712776184,-0.18211041390895844
1724854961831427000,8.738427001953125,0.301632285118103,-0.29008427262306213,-0.09905494749546051
1724854961841478100,8.74847802734375,0.2833603322505951,-0.14109107851982117,-0.20708607137203217
1724854961851530000,8.758530029296875,0.28872475028038025,-0.20728661119937897,-0.25128230452537537
1724854961861582000,8.76858203125,0.300402969121933,-0.244288831949234,-0.19537216424942017
1724854961871634000,8.778634033203126,0.33692288398742676,-0.23006808757781982,-0.12137702852487564
1724854961881686000,8.78868603515625,0.4024321436882019,-0.39447328448295593,-0.009861152619123459
1724854961891737900,8.79873779296875,0.26340100169181824,-0.11153371632099152,0.012085957452654839
1724854961901789000,8.808788818359375,0.18552592396736145,-0.07880586385726929,0.006131928414106369
1724854961911841000,8.818841064453125,0.08806168287992477,-0.13495968282222748,0.04315412789583206
1724854961921892900,8.828892822265624,-0.019507654011249542,-0.08065516501665115,0.03876017779111862
1724854961931945000,8.838945068359376,0.0005371595616452396,-0.10878080874681473,0.06262849271297455
1724854961941997000,8.8489970703125,0.00115421402733773,0.05601692944765091,-0.018160894513130188
1724854961952049000,8.859048828125,0.15041054785251617,0.09974150359630585,-0.027109913527965546
1724854961962101000,8.86910107421875,0.26426228880882263,-0.44011878967285156,0.1588953733444214
1724854961972152000,8.879152099609374,0.13067811727523804,0.19888566434383392,0.10222943127155304
1724854961982204000,8.889203857421874,0.21187657117843628,0.06209985539317131,0.1917787492275238
1724854961992256000,8.899256103515626,0.20174802839756012,-0.0006466155173256993,0.24359960854053497
1724854962002307800,8.909307861328125,0.1148056760430336,-0.09281782060861588,0.3025350868701935
1724854962012360200,8.919360107421875,0.03652072697877884,-0.18543750047683716,0.34814465045928955
1724854962022412000,8.929412109375,0.03286713734269142,-0.2235822230577469,0.34101033210754395
1724854962032464100,8.939464111328125,0.09055279940366745,-0.31732577085494995,0.31304898858070374
1724854962042515000,8.949514892578126,0.12615181505680084,-0.2922970950603485,0.3114628195762634
1724854962052567000,8.959567138671876,0.16272766888141632,-0.2811853289604187,0.3512144982814789
1724854962062619000,8.969618896484375,0.1694585382938385,-0.2582469880580902,0.398729532957077
1724854962072671000,8.9796708984375,0.15841147303581238,-0.2710155248641968,0.4205735921859741
1724854962082722800,8.989722900390625,0.14410284161567688,-0.3363700211048126,0.4117486774921417
1724854962092775400,8.999775390625,0.12661173939704895,-0.3942034840583801,0.39603522419929504
1724854962102826200,9.009826171875,0.0828980803489685,-0.4156339466571808,0.4530961215496063
1724854962112878300,9.01987841796875,0.01629668101668358,-0.4314821660518646,0.5026010870933533
1724854962122930400,9.029930419921875,-0.03013446554541588,-0.5114403963088989,0.5196442604064941
1724854962132982500,9.039982421875,-0.053099703043699265,-0.5339978933334351,0.5534490942955017
1724854962143034400,9.050034423828125,-0.06453877687454224,-0.5765325427055359,0.5938681364059448
1724854962153086500,9.06008642578125,-0.08065862953662872,-0.6124828457832336,0.6024099588394165
1724854962163138300,9.07013818359375,-0.09102418273687363,-0.6192147731781006,0.6188589930534363
1724854962173189400,9.080189453125,-0.09257307648658752,-0.6228814125061035,0.6447294354438782
1724854962183241500,9.090241455078125,-0.08788671344518661,-0.6038994789123535,0.6644498705863953
1724854962193293300,9.100293212890625,-0.10060650110244751,-0.5661715269088745,0.7060452699661255
1724854962203345400,9.110345458984375,-0.11223732680082321,-0.5795304775238037,0.7456533908843994
1724854962213397500,9.1203974609375,-0.1242295429110527,-0.5886997580528259,0.7667584419250488
1724854962223449300,9.130449462890626,-0.13900502026081085,-0.5729609727859497,0.8156601786613464
1724854962233500400,9.14050048828125,-0.15673954784870148,-0.656096875667572,0.8485126495361328
1724854962243552500,9.150552490234375,-0.20837397873401642,-0.7127180695533752,0.8557165265083313
1724854962253604400,9.160604248046875,-0.26050135493278503,-0.7304558157920837,0.890551745891571
1724854962263656400,9.170656494140625,-0.30187755823135376,-0.6969058513641357,0.9343008399009705
1724854962273708300,9.180708251953124,-0.31222981214523315,-0.6653361916542053,0.9578508734703064
1724854962283760400,9.190760498046876,-0.3007102906703949,-0.6630426645278931,0.9775846600532532
1724854962293812500,9.2008125,-0.29188272356987,-0.6422351598739624,1.0154012441635132
1724854962303863600,9.210863525390625,-0.28150758147239685,-0.552905797958374,1.0413010120391846
1724854962313915400,9.220915283203125,-0.28362637758255005,-0.4294208884239197,1.154685616493225
1724854962323967500,9.230967529296874,-0.325920045375824,-0.2593897581100464,1.2130861282348633
1724854962334019300,9.241019287109374,-0.37626150250434875,-0.18377728760242462,1.2225579023361206
1724854962344071400,9.251071533203126,-0.4133431017398834,-0.25257551670074463,1.2588034868240356
1724854962354123300,9.261123291015625,-0.418562114238739,-0.30021920800209045,1.282294750213623
1724854962364175400,9.27117529296875,-0.3916204869747162,-0.33326584100723267,1.3075084686279297
1724854962374226400,9.281226318359375,-0.38088688254356384,-0.3447059988975525,1.3251583576202393
1724854962384278300,9.2912783203125,-0.4313383400440216,-0.3658701181411743,1.3354676961898804
1724854962394330600,9.30133056640625,-0.4674292504787445,-0.32784658670425415,1.3755797147750854
1724854962404382500,9.311382568359376,-0.5196314454078674,-0.4946576654911041,1.4243844747543335
1724854962414434600,9.3214345703125,-0.5437096357345581,-0.44249141216278076,1.370828628540039
1724854962424486400,9.331486328125,-0.5382986068725586,-0.49604037404060364,1.3454396724700928
1724854962434537500,9.341537353515625,-0.5573136210441589,-0.6287470459938049,1.267670750617981
1724854962444589300,9.35158935546875,-0.524886965751648,-0.6019651889801025,1.1706560850143433
1724854962454641400,9.361641357421876,-0.5013038516044617,-0.5937322974205017,1.0876970291137695
1724854962464693200,9.371693359375,-0.5592132210731506,-0.5862783789634705,0.9956573843955994
1724854962474745600,9.38174560546875,-0.5967938899993896,-0.4508492052555084,0.9523088335990906
1724854962484797400,9.39179736328125,-0.6353849768638611,-0.47028017044067383,0.9166166186332703
1724854962494848500,9.4018486328125,-0.6454972624778748,-0.7458866834640503,0.8444638848304749
1724854962504900400,9.411900390625,-0.7345059514045715,-0.830784261226654,0.5974104404449463
1724854962514952400,9.421952392578126,-0.8019281029701233,-0.7081212401390076,0.4342814087867737
1724854962525004300,9.43200439453125,-0.9413883090019226,-0.6406106352806091,0.3429613411426544
1724854962535056400,9.442056396484375,-1.0804418325424194,-0.7722123265266418,0.234351247549057
1724854962545108200,9.452108154296875,-1.032286286354065,-0.8538062572479248,0.2064381241798401
1724854962555160600,9.46216064453125,-0.9243773221969604,-0.6983556747436523,0.2435103952884674
1724854962565211400,9.47221142578125,-0.8770418167114258,-0.36549460887908936,0.252543568611145
1724854962575263500,9.482263427734376,-0.9455696940422058,-0.05673917755484581,0.256390780210495
1724854962585315600,9.492315673828125,-1.0614182949066162,-0.08465070277452469,0.3083037734031677
1724854962595367400,9.502367431640625,-1.1341403722763062,0.09402529895305634,0.4355517327785492
1724854962605419500,9.51241943359375,-1.1861261129379272,0.13460974395275116,0.5449791550636292
1724854962615471400,9.522471435546874,-1.2037171125411987,0.290955126285553,0.6489835977554321
1724854962625522400,9.5325224609375,-1.2501418590545654,0.2142651528120041,0.7690016031265259
1724854962635574300,9.54257421875,-1.2665467262268066,0.1927790343761444,0.8754702806472778
1724854962645626400,9.55262646484375,-1.2056649923324585,0.3196094334125519,0.9663684964179993
1724854962655678500,9.562678466796875,-1.144352912902832,0.3846222460269928,0.9858407378196716
1724854962665730600,9.57273046875,-1.1179404258728027,0.34413766860961914,0.9309574961662292
1724854962675782400,9.582782470703124,-1.066894292831421,0.4829637408256531,0.836317777633667
1724854962685833500,9.59283349609375,-1.0500208139419556,0.330365389585495,0.7927998900413513
1724854962695885300,9.60288525390625,-1.020626425743103,0.27180513739585876,0.799399197101593
1724854962705937400,9.6129375,-1.0091718435287476,0.19934825599193573,0.7208620309829712
1724854962715989200,9.6229892578125,-0.9951817393302917,0.0672951489686966,0.6446087956428528
1724854962726041300,9.633041259765625,-0.8718419671058655,-0.08890856802463531,0.5783557891845703
1724854962736093400,9.643093505859374,-0.8063231706619263,-0.2410445660352707,0.5022255778312683
1724854962746145500,9.6531455078125,-0.7467802166938782,-0.24779275059700012,0.4167785942554474
1724854962756196600,9.663196533203125,-0.6618258953094482,-0.23631639778614044,0.31724026799201965
1724854962766248400,9.67324853515625,-0.6108015775680542,-0.21504199504852295,0.26904532313346863
1724854962776300500,9.683300537109375,-0.5407559275627136,-0.23654036223888397,0.2099790722131729
1724854962786352400,9.693352294921874,-0.49765345454216003,-0.21854938566684723,0.19684967398643494
1724854962796404500,9.703404541015624,-0.4246532917022705,-0.10298284143209457,0.16926997900009155
1724854962806456300,9.713456298828126,-0.3793276250362396,-0.022115422412753105,0.11544670164585114
1724854962816507400,9.72350732421875,-0.3452785611152649,0.07432989031076431,0.011636416427791119
1724854962826559200,9.733559326171875,-0.2997576892375946,0.11534683406352997,-0.0920092836022377
1724854962836611600,9.743611572265625,-0.1778126060962677,0.09376563876867294,-0.15935929119586945
1724854962846663400,9.753663330078124,-0.05705795809626579,0.12253843247890472,-0.2054213285446167
1724854962856715500,9.763715576171874,0.03423360362648964,0.14666320383548737,-0.18967832624912262
1724854962866767400,9.773767333984376,0.1086399257183075,0.0812666267156601,-0.14672686159610748
1724854962876818400,9.783818359375,0.15414509177207947,0.05383606627583504,-0.11322535574436188
1724854962886870300,9.793870361328125,0.1868726760149002,0.2216935157775879,-0.08028098940849304
1724854962896922400,9.80392236328125,0.1569209098815918,0.5658972263336182,0.018818162381649017
1724854962906974200,9.81397412109375,0.08071961253881454,0.7884136438369751,0.17513692378997803
1724854962917026600,9.824026611328126,-0.0038535939529538155,0.8266566395759583,0.2541310787200928
1724854962927078400,9.834078369140625,-0.026875022798776627,0.8010823130607605,0.28637608885765076
1724854962937129500,9.84412939453125,0.04339247941970825,0.6986187696456909,0.31584876775741577
1724854962947181600,9.854181640625,0.10865697264671326,0.6110556721687317,0.35813629627227783
1724854962957233400,9.8642333984375,0.1777593493461609,0.5224064588546753,0.3857516944408417
1724854962967285500,9.874285400390624,0.2538125514984131,0.4049019515514374,0.3957553207874298
1724854962977337300,9.88433740234375,0.3154096305370331,0.328601598739624,0.4080785810947418
1724854962987389400,9.894389404296875,0.344561904668808,0.27037128806114197,0.4046018123626709
1724854962997440300,9.904440185546875,0.3803153932094574,0.29739412665367126,0.36435213685035706
1724854963007492400,9.914492431640625,0.3527844250202179,0.37354108691215515,0.22655750811100006
1724854963017544400,9.92454443359375,0.3019747734069824,0.38788914680480957,0.09356217831373215
1724854963027596500,9.934596435546876,0.26022225618362427,0.28626370429992676,0.04959125444293022
1724854963037648400,9.9446484375,0.2293144166469574,0.17652949690818787,0.02046532742679119
1724854963047700500,9.954700439453125,0.21926258504390717,0.1534191220998764,-0.01978941820561886
1724854963057752300,9.96475244140625,0.21953155100345612,0.16239289939403534,-0.03940652683377266
1724854963067803400,9.974803466796875,0.22452418506145477,0.12519946694374084,-0.05348852649331093
1724854963077855200,9.984855224609374,0.22296996414661407,0.06772098690271378,-0.07371869683265686
1724854963087907300,9.9949072265625,0.21705162525177002,0.04352563992142677,-0.0830027386546135
1724854963097962800,10.004962646484374,0.22875568270683289,0.07048561424016953,-0.0930391326546669
1724854963108014800,10.015014892578124,0.2434435486793518,0.13133804500102997,-0.10219987481832504
1724854963118066000,10.02506591796875,0.2661629617214203,0.15157780051231384,-0.14460910856723785
1724854963128117800,10.03511767578125,0.2943163216114044,0.15254266560077667,-0.19551490247249603
1724854963138169900,10.045169921875,0.35024401545524597,0.13352690637111664,-0.2909037470817566
1724854963148222000,10.055221923828125,0.40634724497795105,0.06474863737821579,-0.391368567943573
1724854963158274000,10.065274169921874,0.4441731870174408,-0.008342618122696877,-0.4535083770751953
1724854963168326000,10.075325927734376,0.46834510564804077,-0.122303806245327,-0.4989573359489441
1724854963178377000,10.085376953125,0.47527649998664856,-0.19145038723945618,-0.5460508465766907
1724854963188428800,10.0954287109375,0.478038489818573,-0.20305991172790527,-0.6111605763435364
1724854963198481000,10.10548095703125,0.5478769540786743,-0.17670978605747223,-0.6260295510292053
1724854963208532700,10.11553271484375,0.5535960793495178,-0.17554332315921783,-0.5849276185035706
1724854963218584800,10.125584716796874,0.5660692453384399,-0.2123362272977829,-0.5702946186065674
1724854963228637000,10.135636962890626,0.5599562525749207,-0.2447809875011444,-0.5574030876159668
1724854963238687700,10.145687744140625,0.5949217081069946,-0.18174369633197784,-0.4736096262931824
1724854963248739800,10.15573974609375,0.6882550716400146,-0.04223879799246788,-0.39266258478164673
1724854963258792000,10.1657919921875,0.7989957332611084,0.01537735853344202,-0.3362342119216919
1724854963268843800,10.17584375,0.882332444190979,-0.006013151258230209,-0.3174554705619812
1724854963278895900,10.185895751953124,0.885469913482666,-0.011069695465266705,-0.3192778527736664
1724854963288947700,10.19594775390625,0.8606953024864197,0.04631450027227402,-0.32668623328208923
1724854963298998800,10.205998779296875,0.8558489084243774,0.09041831642389297,-0.31630364060401917
1724854963309051000,10.21605078125,0.8867037296295166,0.06656011939048767,-0.30072787404060364
1724854963319102700,10.226102783203125,0.817940890789032,0.04640424996614456,-0.2778790295124054
1724854963329155000,10.236155029296874,0.7449423670768738,0.04653261601924896,-0.2667480707168579
1724854963339207000,10.24620703125,0.6201527118682861,0.1640656292438507,-0.257589191198349
1724854963349259000,10.256259033203126,0.5715577602386475,0.18644684553146362,-0.22085781395435333
1724854963359309800,10.266309814453125,0.5467437505722046,0.1620834469795227,-0.17135204374790192
1724854963369362000,10.27636181640625,0.4805189371109009,0.2403223216533661,-0.1409326195716858
1724854963379413800,10.286413818359375,0.4880112111568451,0.22143438458442688,-0.13779382407665253
1724854963389465900,10.2964658203125,0.5318583250045776,0.0914287194609642,-0.13440866768360138
1724854963399517700,10.306517578125,0.5533745288848877,-0.03418540209531784,-0.12733584642410278
1724854963409570000,10.316570068359376,0.4921031594276428,0.030520092695951462,-0.13700711727142334
1724854963419620900,10.326620849609375,0.4876415729522705,0.043541617691516876,-0.13661670684814453
1724854963429673000,10.3366728515625,0.5559218525886536,0.07971587032079697,-0.12695714831352234
1724854963439724800,10.346724853515624,0.5695899724960327,0.19928088784217834,-0.13654612004756927
1724854963449777000,10.35677685546875,0.6095573306083679,0.23510971665382385,-0.16090606153011322
1724854963459828700,10.366828857421876,0.7567108273506165,0.17769142985343933,-0.148671492934227
1724854963469879800,10.3768798828125,0.8022887110710144,0.1810571402311325,-0.12838460505008698
1724854963479932000,10.386931884765625,0.8423951268196106,0.29809215664863586,-0.1447390764951706
1724854963489983700,10.396983642578125,0.9831959009170532,0.2805139422416687,-0.15441752970218658
1724854963500035800,10.407035888671874,0.9388723969459534,0.4622611105442047,-0.199830561876297
1724854963510088000,10.417087890625,0.8555269241333008,0.6599496603012085,-0.2991981506347656
1724854963520140000,10.42714013671875,0.8009020090103149,0.6796842217445374,-0.3712494373321533
1724854963530190800,10.43719091796875,0.7260847687721252,0.7018449306488037,-0.4792105257511139
1724854963540243000,10.447242919921875,0.7042050361633301,0.6837655305862427,-0.5921953916549683
1724854963550294800,10.457294677734374,0.6314134001731873,0.7253305315971375,-0.7406434416770935
1724854963560347000,10.467346923828124,0.5588467717170715,0.7182273864746094,-0.8490421175956726
1724854963570398700,10.477398681640626,0.5592435598373413,0.6716588139533997,-0.9171998500823975
1724854963580450800,10.487450927734375,0.575467050075531,0.6723573803901672,-0.979390561580658
1724854963590502000,10.497501953125,0.4895886182785034,0.7432357668876648,-1.0584081411361694
1724854963600554000,10.507553955078125,0.50801020860672,0.6614189743995667,-1.1042560338974
1724854963610606000,10.517606201171875,0.530860960483551,0.5479919910430908,-1.1123549938201904
1724854963620658000,10.527657958984374,0.5507728457450867,0.6552984714508057,-1.1489284038543701
1724854963630709800,10.537709716796876,0.43365398049354553,0.7297631502151489,-1.2219663858413696
1724854963640760800,10.5477607421875,0.4469902813434601,0.8131507039070129,-1.2936595678329468
1724854963650813000,10.55781298828125,0.4844564199447632,0.7696969509124756,-1.3817768096923828
1724854963660864800,10.56786474609375,0.4446570873260498,0.882336437702179,-1.503775715827942
1724854963670916900,10.577916748046874,0.32283905148506165,1.0762646198272705,-1.57854163646698
1724854963680968700,10.58796875,0.34813159704208374,1.172076940536499,-1.5523781776428223
1724854963691021000,10.59802099609375,0.44888246059417725,1.1361534595489502,-1.4917062520980835
1724854963701072000,10.60807177734375,0.45873135328292847,1.0561822652816772,-1.5623914003372192
1724854963711124000,10.6181240234375,0.4401520788669586,0.8874185085296631,-1.6163153648376465
1724854963721175800,10.62817578125,0.40301695466041565,0.9021721482276917,-1.560319185256958
1724854963731228000,10.638227783203124,0.4422437250614166,0.9287153482437134,-1.4947012662887573
1724854963741279700,10.64827978515625,0.40194129943847656,0.8934977054595947,-1.5052000284194946
1724854963751330800,10.658330810546875,0.3856068253517151,0.9250500798225403,-1.4584282636642456
1724854963761383000,10.6683828125,0.49380040168762207,0.7879526615142822,-1.3613206148147583
1724854963771434800,10.678434814453125,0.4054638743400574,0.8607046008110046,-1.37770676612854
1724854963781487000,10.688487060546874,0.3768913447856903,0.8035308122634888,-1.343956470489502
1724854963791539000,10.6985390625,0.30276837944984436,0.8972954154014587,-1.2951788902282715
1724854963801591000,10.708591064453126,0.2775663733482361,0.7935929894447327,-1.2549635171890259
1724854963811641900,10.718641845703125,0.40164995193481445,0.5306779742240906,-1.0742496252059937
1724854963821694000,10.72869384765625,0.38834401965141296,0.6612706184387207,-0.9264253377914429
1724854963831745800,10.738745849609375,0.2738081216812134,0.3399980366230011,-0.8021268248558044
1724854963841798000,10.7487978515625,0.3413935601711273,-0.10607210546731949,-0.7329427003860474
1724854963851849700,10.758849609375,0.2559060752391815,0.27101632952690125,-0.7240330576896667
1724854963861900800,10.76890087890625,0.17443731427192688,0.2408166080713272,-0.7099806070327759
1724854963871953000,10.778952880859375,0.2192159742116928,0.04430301487445831,-0.6078119277954102
1724854963882005000,10.7890048828125,0.30516576766967773,-0.09439973533153534,-0.4758016765117645
1724854963892056800,10.799056884765625,0.4247741997241974,-0.4639729857444763,-0.374898761510849
1724854963902109000,10.80910888671875,0.5392328500747681,-0.16471518576145172,-0.2423601746559143
1724854963912160800,10.819160888671876,0.5425000190734863,-0.016326243057847023,-0.2075374722480774
1724854963922211800,10.8292119140625,0.563372790813446,-0.03550899028778076,-0.08287597447633743
1724854963932264000,10.839263916015625,0.5894608497619629,-0.07635416090488434,-0.03647651895880699
1724854963942315800,10.849315673828125,0.5913794040679932,-0.1374947428703308,0.038172151893377304
1724854963952367900,10.859367919921874,0.5587487816810608,-0.09130727499723434,0.1266021430492401
1724854963962420000,10.869419921875,0.514427661895752,-0.14925339818000793,0.26022598147392273
1724854963972470800,10.879470703125,0.47629570960998535,-0.23587989807128906,0.3540230691432953
1724854963982523000,10.88952294921875,0.4297889173030853,-0.3595467209815979,0.40360498428344727
1724854963992575000,10.899574951171875,0.421071320772171,-0.4453479051589966,0.42174938321113586
1724854964002626800,10.909626708984375,0.43151357769966125,-0.47839027643203735,0.46033379435539246
1724854964012679000,10.919678955078124,0.4124722480773926,-0.4884282648563385,0.5144870281219482
1724854964022730000,10.92972998046875,0.40173012018203735,-0.508670449256897,0.5729870796203613
1724854964032781800,10.93978173828125,0.39470043778419495,-0.4779258370399475,0.651695191860199
1724854964042834000,10.949833984375,0.37708336114883423,-0.44422778487205505,0.7470779418945312
1724854964052885800,10.9598857421875,0.330512672662735,-0.4596136510372162,0.82322758436203
1724854964062937900,10.969937744140625,0.26993054151535034,-0.49318841099739075,0.8635225296020508
1724854964072990000,10.979989990234374,0.2327706664800644,-0.5892084240913391,0.8893898129463196
1724854964083041000,10.990041015625,0.1909734159708023,-0.6253563165664673,0.961383581161499
1724854964093092900,11.0000927734375,0.14778733253479004,-0.6644690632820129,1.0011852979660034
1724854964103142100,11.01014208984375,0.09612280130386353,-0.7100583910942078,1.0319442749023438
1724854964113194200,11.0201943359375,0.03774311766028404,-0.7696149349212646,1.0878968238830566
1724854964123246000,11.03024609375,-0.016985375434160233,-0.8233618140220642,1.108116865158081
1724854964133297200,11.040297119140625,-0.07083342969417572,-0.8232592344284058,1.1531116962432861
1724854964143349200,11.050349365234375,-0.122723788022995,-0.807318925857544,1.2159221172332764
1724854964153401000,11.060401123046875,-0.17400534451007843,-0.817560076713562,1.2423737049102783
1724854964163453400,11.070453369140624,-0.2308473289012909,-0.8300734758377075,1.286103367805481
1724854964173505300,11.08050537109375,-0.3059444725513458,-0.8550449013710022,1.3024476766586304
1724854964183556400,11.090556396484375,-0.37255173921585083,-0.9112311601638794,1.3103125095367432
1724854964193608200,11.100608154296875,-0.4177098870277405,-0.9860969185829163,1.3095165491104126
1724854964203660300,11.110660400390625,-0.46642202138900757,-1.018019676208496,1.299554467201233
1724854964213712100,11.120712158203125,-0.5285815596580505,-0.9771707653999329,1.2645176649093628
1724854964223764200,11.13076416015625,-0.5856560468673706,-0.8795337080955505,1.250629186630249
1724854964233815300,11.140815185546876,-0.6584732532501221,-0.8256033658981323,1.2545124292373657
1724854964243867100,11.1508671875,-0.7124954462051392,-0.7688575387001038,1.2230525016784668
1724854964253919500,11.16091943359375,-0.7640923261642456,-0.8007893562316895,1.2410063743591309
1724854964263971300,11.170971435546875,-0.808447003364563,-0.7863454222679138,1.1649755239486694
1724854964274023200,11.181023193359374,-0.8421927094459534,-0.7323988676071167,1.1183431148529053
1724854964284075300,11.1910751953125,-0.9002344608306885,-0.798654317855835,1.0791549682617188
1724854964294126300,11.201126220703125,-0.9300464391708374,-0.6957425475120544,1.0140001773834229
1724854964304178200,11.21117822265625,-0.9565006494522095,-0.7028627991676331,0.9508992433547974
1724854964314230300,11.221230224609375,-1.0015627145767212,-0.6905128955841064,0.9214097857475281
1724854964324282000,11.2312822265625,-1.060922622680664,-0.708469808101654,0.8796612620353699
1724854964334334200,11.241334228515624,-1.0955301523208618,-0.612606406211853,0.8394203782081604
1724854964344385000,11.251385009765626,-1.0986130237579346,-0.5638825297355652,0.7937447428703308
1724854964354437400,11.261437255859375,-1.0971711874008179,-0.5947472453117371,0.7569183111190796
1724854964364489200,11.2714892578125,-1.0861175060272217,-0.6177846789360046,0.7344170212745667
1724854964374541300,11.281541259765625,-1.1127973794937134,-0.6290218830108643,0.7166803479194641
1724854964384593200,11.29159326171875,-1.1174386739730835,-0.4500497281551361,0.6728191375732422
1724854964394644200,11.301644287109376,-1.1464415788650513,-0.4073459208011627,0.6523122787475586
1724854964404696300,11.3116962890625,-1.1772575378417969,-0.39294037222862244,0.657665491104126
1724854964414748200,11.321748046875,-1.212367057800293,-0.40962132811546326,0.6795843839645386
1724854964424800300,11.33180029296875,-1.261460542678833,-0.32964926958084106,0.6882146000862122
1724854964434852400,11.341852294921875,-1.214551329612732,-0.1990092396736145,0.6747912168502808
1724854964444903200,11.351903076171874,-1.1299209594726562,-0.1779918372631073,0.6689924597740173
1724854964454955300,11.361955322265626,-1.0543614625930786,-0.13670697808265686,0.6863030195236206
1724854964465007400,11.37200732421875,-0.996054470539093,-0.08848512172698975,0.7104431986808777
1724854964475059200,11.38205908203125,-0.9467191100120544,-0.04827592149376869,0.7160635590553284
1724854964485111300,11.392111328125,-0.9245730638504028,-0.021825935691595078,0.7187623977661133
1724854964495163100,11.4021630859375,-0.8625621795654297,0.009015066549181938,0.7454744577407837
1724854964505214200,11.412214111328124,-0.8354719877243042,0.023728499189019203,0.7541795372962952
1724854964515266300,11.422266357421876,-0.8597924709320068,-0.010987403802573681,0.7128624320030212
1724854964525318100,11.432318115234375,-0.8274633288383484,0.15821333229541779,0.6455848813056946
1724854964535370200,11.442370361328125,-0.7590610980987549,0.20320850610733032,0.605812132358551
1724854964545422300,11.45242236328125,-0.7400096654891968,0.14379552006721497,0.5928923487663269
1724854964555473400,11.462473388671874,-0.6911653876304626,0.07394319772720337,0.6197026968002319
1724854964565525200,11.472525146484376,-0.58929044008255,-0.000017843178284238093,0.6414564251899719
1724854964575577300,11.482577392578126,-0.5940284729003906,0.03349590674042702,0.6355492472648621
1724854964585629200,11.492629150390625,-0.632042407989502,0.10506170243024826,0.6266700029373169
1724854964595681300,11.502681396484375,-0.6125060319900513,0.220077246427536,0.6039077043533325
1724854964605732000,11.512732177734375,-0.6413102149963379,0.2523757815361023,0.6099658608436584
1724854964615784200,11.5227841796875,-0.725429356098175,0.17528153955936432,0.5795368552207947
1724854964625836000,11.5328359375,-0.6918439865112305,0.22020293772220612,0.5265452861785889
1724854964635888400,11.542888427734376,-0.7392767071723938,0.25603151321411133,0.47491326928138733
1724854964645940200,11.552940185546875,-0.7462015151977539,0.22230631113052368,0.42361998558044434
1724854964655991300,11.5629912109375,-0.6518504619598389,0.25116750597953796,0.40557360649108887
1724854964666043400,11.57304345703125,-0.5354764461517334,0.2252560257911682,0.4060644209384918
1724854964676095200,11.58309521484375,-0.4880319833755493,0.15980537235736847,0.4200870394706726
1724854964686147300,11.593147216796876,-0.36641260981559753,0.21636132895946503,0.46133753657341003
1724854964696199200,11.60319921875,-0.2415287345647812,0.19373750686645508,0.48059672117233276
1724854964706250200,11.613250244140625,-0.1824885904788971,0.22713275253772736,0.43656453490257263
1724854964716302000,11.623302001953125,-0.22807657718658447,0.256840318441391,0.3339332342147827
1724854964726354400,11.6333544921875,-0.159352645277977,0.3737299144268036,0.2534956634044647
1724854964736406300,11.64340625,-0.10794537514448166,0.3117738664150238,0.1941084861755371
1724854964746458400,11.653458251953126,-0.07243212312459946,0.2004164457321167,0.16463156044483185
1724854964756509200,11.66350927734375,-0.07700583338737488,0.0776553824543953,0.14551112055778503
1724854964766561300,11.673561279296875,-0.02923831343650818,-0.029140042141079903,0.1810387670993805
1724854964776613000,11.683613037109374,-0.010469951666891575,-0.07483801990747452,0.22098484635353088
1724854964786665200,11.693665283203124,0.01239088922739029,0.0052384380251169205,0.22913305461406708
1724854964796717000,11.703717041015626,0.10131330788135529,0.1449553221464157,0.23190300166606903
1724854964806768000,11.71376806640625,0.14565041661262512,0.16814400255680084,0.20907358825206757
1724854964816820200,11.7238203125,0.15625672042369843,0.14165140688419342,0.15931029617786407
1724854964826872300,11.733872314453125,0.19244694709777832,0.1789551079273224,0.10191597789525986
1724854964836924400,11.74392431640625,0.21535438299179077,0.12465351819992065,0.05449812859296799
1724854964846976300,11.753976318359374,0.18011623620986938,0.041802309453487396,-0.025240374729037285
1724854964857027300,11.76402734375,0.15972042083740234,0.03542669862508774,-0.11519397050142288
1724854964867079200,11.7740791015625,0.13458150625228882,0.036621127277612686,-0.2021467089653015
1724854964877131300,11.78413134765625,0.1176091879606247,0.028246019035577774,-0.29255756735801697
1724854964887183000,11.79418310546875,0.08109485357999802,0.004523379262536764,-0.370110422372818
1724854964897235200,11.804235107421874,0.07484094798564911,-0.021504759788513184,-0.44443976879119873
1724854964907286300,11.814286376953126,0.10956138372421265,-0.06932421028614044,-0.5117152333259583
1724854964917338000,11.824338134765625,0.11932186782360077,-0.09793242067098618,-0.5415871143341064
1724854964927390500,11.834390380859375,0.1736665964126587,-0.13686516880989075,-0.5731247663497925
1724854964937442300,11.8444423828125,0.215297669172287,-0.15419410169124603,-0.5835102796554565
1724854964947494100,11.854494140625,0.2643762528896332,-0.2106051743030548,-0.577501654624939
1724854964957545200,11.864545166015626,0.3073634207248688,-0.23409931361675262,-0.6080095171928406
1724854964967597300,11.874597412109376,0.3257479965686798,-0.16169382631778717,-0.6329553723335266
1724854964977649200,11.884649169921875,0.3391200006008148,-0.04013170674443245,-0.6501676440238953
1724854964987701200,11.894701171875,0.3603754937648773,0.05368373543024063,-0.6599347591400146
1724854964997753000,11.904753173828125,0.3903488516807556,0.04843331128358841,-0.6677942872047424
1724854965007804200,11.91480419921875,0.4289447069168091,-0.009215869009494781,-0.6505527496337891
1724854965017856300,11.924856201171876,0.49431705474853516,-0.10972116887569427,-0.622779130935669
1724854965027908400,11.934908447265625,0.504344642162323,-0.14468687772750854,-0.5908275842666626
1724854965037960200,11.944960205078125,0.4910610616207123,-0.08799882978200912,-0.6034371256828308
1724854965048012300,11.95501220703125,0.49948012828826904,-0.09753907471895218,-0.6551520228385925
1724854965058063400,11.9650634765625,0.4786297082901001,-0.07170853763818741,-0.7037216424942017
1724854965068115200,11.975115234375,0.5252683162689209,-0.08121336251497269,-0.7642323970794678
1724854965078167300,11.985167236328126,0.5450079441070557,-0.11459555476903915,-0.7899071574211121
1724854965088219100,11.99521923828125,0.5200607776641846,-0.11292655020952225,-0.7924478054046631
1724854965098270200,12.005270263671875,0.5320433974266052,-0.10031488537788391,-0.7848162651062012
1724854965108321300,12.0153212890625,0.5290082097053528,-0.04133332520723343,-0.7565414905548096
1724854965118373000,12.025373046875,0.5566083788871765,0.007292001508176327,-0.7354487180709839
1724854965128425500,12.035425537109376,0.5904819369316101,0.11919989436864853,-0.7210513949394226
1724854965138477300,12.045477294921875,0.6521756649017334,0.08837486803531647,-0.717889666557312
1724854965148529400,12.055529296875,0.6773942112922668,0.19872693717479706,-0.681793749332428
1724854965158580200,12.065580322265625,0.7461529970169067,0.12806423008441925,-0.6717381477355957
1724854965168632300,12.07563232421875,0.7639354467391968,0.0926913246512413,-0.6214427947998047
1724854965178684200,12.08568408203125,0.7307634353637695,0.19877834618091583,-0.6048542261123657
1724854965188736300,12.095736328125,0.8130161762237549,0.3118298053741455,-0.602972149848938
1724854965198787300,12.105787353515625,0.8451507091522217,0.3606489896774292,-0.6251085996627808
1724854965208839200,12.115839111328125,0.8715908527374268,0.442518025636673,-0.6460695862770081
1724854965218891300,12.125891357421875,0.89152991771698,0.43472960591316223,-0.6341971755027771
1724854965228943400,12.135943359375,0.8999111652374268,0.4494611620903015,-0.6426370143890381
1724854965238995200,12.1459951171875,0.8758979439735413,0.43633177876472473,-0.6549035310745239
1724854965249046300,12.15604638671875,0.8635619282722473,0.4665900766849518,-0.6924974918365479
1724854965259098400,12.166098388671875,0.9632035493850708,0.3802839517593384,-0.711383044719696
1724854965269150200,12.176150146484375,0.9755254983901978,0.37316983938217163,-0.727669358253479
1724854965279202300,12.186202392578124,0.9475862383842468,0.42831647396087646,-0.7461572885513306
1724854965289254100,12.196254150390626,0.9533008933067322,0.45289531350135803,-0.7279897332191467
1724854965299305200,12.20630517578125,0.978278398513794,0.49330106377601624,-0.7278397679328918
1724854965309357000,12.216357177734375,1.0025097131729126,0.5373278856277466,-0.7340300679206848
1724854965319409200,12.2264091796875,0.9770304560661316,0.6375863552093506,-0.779897928237915
1724854965329461200,12.236461181640625,1.031531810760498,0.690993070602417,-0.7785144448280334
1724854965339513300,12.246513427734374,1.1168447732925415,0.7338111400604248,-0.7899380326271057
1724854965349564400,12.256564453125,1.1809090375900269,0.8727229237556458,-0.8690906763076782
1724854965359616300,12.2666162109375,1.0904786586761475,0.8597951531410217,-0.9339900016784668
1724854965369668400,12.27666845703125,1.1108816862106323,0.7743369936943054,-0.919927716255188
1724854965379720200,12.28672021484375,1.1260857582092285,0.6794341802597046,-0.897500216960907
1724854965389771300,12.296771240234374,1.1727086305618286,0.8644405007362366,-0.9469242095947266
1724854965399823000,12.306822998046876,1.0400546789169312,0.7521232962608337,-1.0253756046295166
1724854965409875200,12.316875244140626,1.0339398384094238,0.7897119522094727,-1.0261231660842896
1724854965419927300,12.32692724609375,0.9845187067985535,0.8216626644134521,-1.0282102823257446
1724854965429979400,12.3369794921875,1.0359911918640137,0.8148220777511597,-1.07220458984375
1724854965440030500,12.347030517578125,0.8828767538070679,0.647872805595398,-1.1262705326080322
1724854965450082300,12.357082275390624,0.8087700605392456,0.7208388447761536,-1.127243161201477
1724854965460134100,12.367134033203126,0.906915009021759,0.7126895785331726,-1.03617525100708
1724854965470186200,12.377186279296875,0.832137942314148,0.9245682954788208,-1.0503782033920288
1724854965480238000,12.387238037109375,0.718928873538971,1.2427531480789185,-1.1149846315383911
1724854965490289200,12.3972890625,0.6656799912452698,0.9644677639007568,-1.0475752353668213
1724854965500341200,12.40734130859375,0.6218848824501038,0.7766395807266235,-0.9643250107765198
1724854965510393000,12.41739306640625,0.504273533821106,0.8584161996841431,-0.8953241109848022
1724854965520445400,12.427445556640626,0.36763155460357666,0.6161622405052185,-0.8995819687843323
1724854965530496300,12.437496337890625,0.3905573785305023,0.6178898811340332,-0.8229542970657349
1724854965540548400,12.44754833984375,0.389838844537735,0.1254471391439438,-0.7319269180297852
1724854965550600200,12.45760009765625,0.30317506194114685,0.1273968368768692,-0.783484160900116
1724854965560652300,12.46765234375,0.2501254081726074,-0.3234955072402954,-0.7389901876449585
1724854965570704100,12.4777041015625,0.12700535356998444,0.06215764582157135,-0.6833285093307495
1724854965580755200,12.487755126953125,0.1371602565050125,-0.19086715579032898,-0.641970694065094
1724854965590807300,12.497807373046875,0.18279804289340973,-0.3888857066631317,-0.5340175628662109
